File: CSVs/190606_AuNP_PDMS_1/00_AuPDMS_00min.csv
Created as New Dataset,Sample 156 By irlear Date Wednesday, June 05 2019
cm-1,%T
4000.00,79.34
3997.50,79.45
3995.00,79.57
3992.50,79.67
3990.00,79.79
3987.50,79.89
3985.00,80.03
3982.50,80.12
3980.00,80.22
3977.50,80.34
3975.00,80.43
3972.50,80.53
3970.00,80.63
3967.50,80.72
3965.00,80.82
3962.50,80.92
3960.00,80.99
3957.50,81.06
3955.00,81.11
3952.50,81.15
3950.00,81.21
3947.50,81.27
3945.00,81.27
3942.50,81.35
3940.00,81.38
3937.50,81.44
3935.00,81.48
3932.50,81.53
3930.00,81.53
3927.50,81.52
3925.00,81.55
3922.50,81.53
3920.00,81.53
3917.50,81.51
3915.00,81.43
3912.50,81.37
3910.00,81.30
3907.50,81.18
3905.00,81.17
3902.50,81.07
3900.00,80.93
3897.50,80.85
3895.00,80.76
3892.50,80.72
3890.00,80.65
3887.50,80.60
3885.00,80.60
3882.50,80.49
3880.00,80.48
3877.50,80.40
3875.00,80.29
3872.50,80.23
3870.00,80.16
3867.50,79.95
3865.00,79.78
3862.50,79.51
3860.00,79.19
3857.50,78.82
3855.00,78.48
3852.50,77.83
3850.00,77.30
3847.50,76.70
3845.00,76.04
3842.50,75.30
3840.00,74.65
3837.50,74.03
3835.00,73.53
3832.50,73.09
3830.00,72.73
3827.50,72.44
3825.00,72.23
3822.50,71.99
3820.00,71.89
3817.50,71.67
3815.00,71.35
3812.50,71.00
3810.00,70.59
3807.50,70.15
3805.00,69.67
3802.50,69.20
3800.00,68.74
3797.50,68.24
3795.00,67.59
3792.50,66.85
3790.00,65.93
3787.50,64.90
3785.00,63.80
3782.50,62.78
3780.00,61.82
3777.50,60.90
3775.00,60.08
3772.50,59.35
3770.00,58.67
3767.50,58.20
3765.00,57.84
3762.50,57.65
3760.00,57.53
3757.50,57.54
3755.00,57.68
3752.50,57.89
3750.00,58.31
3747.50,58.80
3745.00,59.26
3742.50,59.91
3740.00,60.40
3737.50,60.62
3735.00,60.52
3732.50,60.17
3730.00,59.45
3727.50,58.55
3725.00,57.36
3722.50,56.23
3720.00,55.28
3717.50,54.30
3715.00,53.29
3712.50,52.06
3710.00,50.88
3707.50,49.83
3705.00,48.96
3702.50,48.34
3700.00,48.09
3697.50,48.20
3695.00,48.63
3692.50,49.14
3690.00,50.00
3687.50,50.76
3685.00,51.20
3682.50,51.56
3680.00,51.71
3677.50,51.69
3675.00,51.32
3672.50,51.06
3670.00,50.31
3667.50,49.67
3665.00,48.88
3662.50,48.01
3660.00,47.09
3657.50,46.17
3655.00,45.08
3652.50,44.40
3650.00,43.54
3647.50,42.95
3645.00,42.73
3642.50,42.59
3640.00,42.60
3637.50,42.80
3635.00,43.10
3632.50,43.51
3630.00,43.87
3627.50,44.24
3625.00,44.53
3622.50,44.69
3620.00,44.71
3617.50,44.61
3615.00,44.54
3612.50,44.27
3610.00,44.15
3607.50,43.77
3605.00,43.53
3602.50,43.22
3600.00,42.88
3597.50,42.54
3595.00,42.22
3592.50,42.05
3590.00,41.97
3587.50,41.79
3585.00,41.72
3582.50,41.98
3580.00,42.31
3577.50,42.57
3575.00,42.79
3572.50,43.01
3570.00,43.27
3567.50,43.42
3565.00,43.60
3562.50,43.83
3560.00,43.95
3557.50,44.05
3555.00,44.11
3552.50,44.11
3550.00,44.09
3547.50,44.09
3545.00,44.01
3542.50,43.92
3540.00,43.83
3537.50,43.82
3535.00,43.68
3532.50,43.63
3530.00,43.59
3527.50,43.52
3525.00,43.54
3522.50,43.45
3520.00,43.45
3517.50,43.46
3515.00,43.51
3512.50,43.54
3510.00,43.58
3507.50,43.61
3505.00,43.72
3502.50,43.74
3500.00,43.78
3497.50,43.87
3495.00,43.89
3492.50,43.93
3490.00,44.00
3487.50,44.06
3485.00,44.12
3482.50,44.21
3480.00,44.30
3477.50,44.37
3475.00,44.46
3472.50,44.56
3470.00,44.68
3467.50,44.79
3465.00,44.85
3462.50,44.94
3460.00,45.06
3457.50,45.15
3455.00,45.26
3452.50,45.40
3450.00,45.55
3447.50,45.71
3445.00,45.84
3442.50,45.98
3440.00,46.14
3437.50,46.31
3435.00,46.44
3432.50,46.56
3430.00,46.69
3427.50,46.80
3425.00,46.92
3422.50,47.07
3420.00,47.19
3417.50,47.34
3415.00,47.50
3412.50,47.66
3410.00,47.81
3407.50,47.94
3405.00,48.10
3402.50,48.27
3400.00,48.43
3397.50,48.56
3395.00,48.74
3392.50,48.91
3390.00,49.07
3387.50,49.23
3385.00,49.41
3382.50,49.59
3380.00,49.77
3377.50,49.94
3375.00,50.09
3372.50,50.26
3370.00,50.44
3367.50,50.60
3365.00,50.73
3362.50,50.90
3360.00,51.08
3357.50,51.24
3355.00,51.42
3352.50,51.63
3350.00,51.83
3347.50,52.01
3345.00,52.22
3342.50,52.44
3340.00,52.66
3337.50,52.88
3335.00,53.08
3332.50,53.29
3330.00,53.51
3327.50,53.74
3325.00,53.95
3322.50,54.16
3320.00,54.38
3317.50,54.60
3315.00,54.85
3312.50,55.08
3310.00,55.33
3307.50,55.53
3305.00,55.75
3302.50,55.93
3300.00,56.12
3297.50,56.32
3295.00,56.51
3292.50,56.68
3290.00,56.83
3287.50,56.99
3285.00,57.14
3282.50,57.28
3280.00,57.42
3277.50,57.56
3275.00,57.69
3272.50,57.80
3270.00,57.90
3267.50,57.99
3265.00,58.09
3262.50,58.18
3260.00,58.26
3257.50,58.35
3255.00,58.43
3252.50,58.49
3250.00,58.55
3247.50,58.62
3245.00,58.66
3242.50,58.71
3240.00,58.75
3237.50,58.78
3235.00,58.82
3232.50,58.84
3230.00,58.86
3227.50,58.88
3225.00,58.90
3222.50,58.94
3220.00,58.98
3217.50,59.02
3215.00,59.06
3212.50,59.07
3210.00,59.08
3207.50,59.07
3205.00,59.04
3202.50,59.02
3200.00,58.96
3197.50,58.90
3195.00,58.82
3192.50,58.69
3190.00,58.50
3187.50,58.31
3185.00,58.27
3182.50,58.40
3180.00,58.59
3177.50,58.70
3175.00,58.73
3172.50,58.70
3170.00,58.61
3167.50,58.48
3165.00,58.32
3162.50,58.11
3160.00,57.86
3157.50,57.57
3155.00,57.26
3152.50,56.91
3150.00,56.48
3147.50,56.03
3145.00,55.53
3142.50,55.00
3140.00,54.42
3137.50,53.74
3135.00,53.02
3132.50,52.27
3130.00,51.52
3127.50,50.74
3125.00,50.00
3122.50,49.33
3120.00,48.73
3117.50,48.21
3115.00,47.78
3112.50,47.45
3110.00,47.25
3107.50,47.12
3105.00,47.05
3102.50,47.05
3100.00,47.09
3097.50,47.08
3095.00,47.09
3092.50,47.07
3090.00,47.01
3087.50,46.89
3085.00,46.71
3082.50,46.46
3080.00,46.16
3077.50,45.79
3075.00,45.30
3072.50,44.73
3070.00,44.01
3067.50,43.10
3065.00,41.87
3062.50,40.28
3060.00,38.34
3057.50,36.34
3055.00,34.84
3052.50,34.52
3050.00,35.75
3047.50,37.90
3045.00,39.75
3042.50,40.88
3040.00,41.45
3037.50,41.73
3035.00,41.82
3032.50,41.67
3030.00,41.29
3027.50,40.65
3025.00,39.74
3022.50,38.45
3020.00,36.94
3017.50,35.46
3015.00,34.29
3012.50,33.40
3010.00,32.42
3007.50,31.02
3005.00,29.16
3002.50,26.84
3000.00,24.11
2997.50,21.05
2995.00,17.64
2992.50,14.03
2990.00,10.34
2987.50,6.86
2985.00,3.91
2982.50,1.79
2980.00,0.58
2977.50,0.08
2975.00,-0.00
2972.50,0.04
2970.00,0.07
2967.50,0.07
2965.00,0.07
2962.50,0.05
2960.00,0.08
2957.50,0.08
2955.00,0.07
2952.50,0.02
2950.00,0.06
2947.50,0.38
2945.00,1.16
2942.50,2.49
2940.00,4.29
2937.50,6.41
2935.00,8.63
2932.50,10.72
2930.00,12.52
2927.50,13.85
2925.00,14.57
2922.50,14.54
2920.00,13.69
2917.50,11.98
2915.00,9.50
2912.50,6.69
2910.00,4.28
2907.50,2.82
2905.00,2.37
2902.50,2.79
2900.00,4.14
2897.50,6.53
2895.00,9.82
2892.50,13.58
2890.00,17.37
2887.50,20.93
2885.00,24.14
2882.50,27.00
2880.00,29.55
2877.50,31.87
2875.00,34.04
2872.50,36.07
2870.00,37.94
2867.50,39.57
2865.00,40.93
2862.50,42.02
2860.00,42.84
2857.50,43.47
2855.00,43.96
2852.50,44.34
2850.00,44.65
2847.50,44.94
2845.00,45.22
2842.50,45.47
2840.00,45.76
2837.50,46.18
2835.00,46.75
2832.50,47.37
2830.00,47.92
2827.50,48.30
2825.00,48.45
2822.50,48.37
2820.00,48.11
2817.50,47.77
2815.00,47.45
2812.50,47.25
2810.00,47.20
2807.50,47.31
2805.00,47.50
2802.50,47.73
2800.00,48.00
2797.50,48.39
2795.00,49.06
2792.50,50.22
2790.00,52.02
2787.50,54.49
2785.00,57.33
2782.50,60.18
2780.00,62.81
2777.50,65.12
2775.00,67.12
2772.50,68.87
2770.00,70.39
2767.50,71.69
2765.00,72.82
2762.50,73.79
2760.00,74.62
2757.50,75.33
2755.00,75.94
2752.50,76.48
2750.00,76.95
2747.50,77.39
2745.00,77.81
2742.50,78.20
2740.00,78.56
2737.50,78.87
2735.00,79.15
2732.50,79.40
2730.00,79.61
2727.50,79.79
2725.00,79.91
2722.50,80.00
2720.00,80.04
2717.50,80.02
2715.00,79.95
2712.50,79.87
2710.00,79.82
2707.50,79.81
2705.00,79.89
2702.50,80.04
2700.00,80.20
2697.50,80.35
2695.00,80.45
2692.50,80.49
2690.00,80.44
2687.50,80.30
2685.00,80.04
2682.50,79.67
2680.00,79.17
2677.50,78.60
2675.00,77.95
2672.50,77.24
2670.00,76.52
2667.50,75.86
2665.00,75.39
2662.50,75.20
2660.00,75.32
2657.50,75.75
2655.00,76.44
2652.50,77.32
2650.00,78.33
2647.50,79.34
2645.00,80.29
2642.50,81.12
2640.00,81.83
2637.50,82.43
2635.00,82.94
2632.50,83.36
2630.00,83.70
2627.50,84.00
2625.00,84.25
2622.50,84.48
2620.00,84.68
2617.50,84.84
2615.00,84.99
2612.50,85.14
2610.00,85.25
2607.50,85.37
2605.00,85.46
2602.50,85.54
2600.00,85.62
2597.50,85.67
2595.00,85.72
2592.50,85.76
2590.00,85.81
2587.50,85.87
2585.00,85.92
2582.50,85.97
2580.00,86.01
2577.50,86.03
2575.00,86.06
2572.50,86.10
2570.00,86.12
2567.50,86.14
2565.00,86.14
2562.50,86.14
2560.00,86.14
2557.50,86.14
2555.00,86.12
2552.50,86.11
2550.00,86.09
2547.50,86.07
2545.00,86.04
2542.50,86.01
2540.00,85.96
2537.50,85.90
2535.00,85.82
2532.50,85.71
2530.00,85.56
2527.50,85.38
2525.00,85.16
2522.50,84.92
2520.00,84.62
2517.50,84.28
2515.00,83.82
2512.50,83.16
2510.00,82.19
2507.50,80.72
2505.00,78.63
2502.50,76.32
2500.00,74.94
2497.50,75.29
2495.00,76.78
2492.50,78.51
2490.00,80.12
2487.50,81.54
2485.00,82.68
2482.50,83.53
2480.00,84.14
2477.50,84.60
2475.00,84.94
2472.50,85.21
2470.00,85.41
2467.50,85.57
2465.00,85.69
2462.50,85.80
2460.00,85.89
2457.50,85.97
2455.00,86.04
2452.50,86.10
2450.00,86.16
2447.50,86.20
2445.00,86.24
2442.50,86.27
2440.00,86.28
2437.50,86.29
2435.00,86.31
2432.50,86.32
2430.00,86.32
2427.50,86.33
2425.00,86.32
2422.50,86.32
2420.00,86.32
2417.50,86.31
2415.00,86.29
2412.50,86.28
2410.00,86.26
2407.50,86.24
2405.00,86.23
2402.50,86.22
2400.00,86.21
2397.50,86.19
2395.00,86.17
2392.50,86.15
2390.00,86.13
2387.50,86.10
2385.00,86.06
2382.50,86.01
2380.00,85.95
2377.50,85.91
2375.00,85.86
2372.50,85.83
2370.00,85.81
2367.50,85.76
2365.00,85.71
2362.50,85.68
2360.00,85.63
2357.50,85.57
2355.00,85.52
2352.50,85.44
2350.00,85.39
2347.50,85.35
2345.00,85.31
2342.50,85.25
2340.00,85.17
2337.50,85.10
2335.00,85.08
2332.50,85.05
2330.00,84.98
2327.50,84.89
2325.00,84.80
2322.50,84.72
2320.00,84.62
2317.50,84.51
2315.00,84.41
2312.50,84.29
2310.00,84.17
2307.50,84.04
2305.00,83.90
2302.50,83.76
2300.00,83.61
2297.50,83.44
2295.00,83.26
2292.50,83.06
2290.00,82.83
2287.50,82.60
2285.00,82.34
2282.50,82.09
2280.00,81.83
2277.50,81.60
2275.00,81.41
2272.50,81.26
2270.00,81.16
2267.50,81.08
2265.00,80.98
2262.50,80.88
2260.00,80.76
2257.50,80.62
2255.00,80.44
2252.50,80.24
2250.00,80.01
2247.50,79.75
2245.00,79.45
2242.50,79.13
2240.00,78.77
2237.50,78.36
2235.00,77.89
2232.50,77.36
2230.00,76.76
2227.50,76.08
2225.00,75.33
2222.50,74.52
2220.00,73.65
2217.50,72.68
2215.00,71.61
2212.50,70.40
2210.00,69.02
2207.50,67.43
2205.00,65.60
2202.50,63.53
2200.00,61.16
2197.50,58.48
2195.00,55.43
2192.50,52.04
2190.00,48.31
2187.50,44.28
2185.00,40.01
2182.50,35.64
2180.00,31.35
2177.50,27.35
2175.00,23.81
2172.50,20.89
2170.00,18.62
2167.50,17.01
2165.00,16.04
2162.50,15.72
2160.00,16.05
2157.50,17.03
2155.00,18.65
2152.50,20.94
2150.00,23.91
2147.50,27.47
2145.00,31.50
2142.50,35.84
2140.00,40.29
2137.50,44.66
2135.00,48.80
2132.50,52.56
2130.00,55.87
2127.50,58.67
2125.00,61.02
2122.50,62.97
2120.00,64.61
2117.50,65.95
2115.00,67.04
2112.50,67.93
2110.00,68.67
2107.50,69.29
2105.00,69.85
2102.50,70.35
2100.00,70.79
2097.50,71.17
2095.00,71.48
2092.50,71.70
2090.00,71.81
2087.50,71.82
2085.00,71.76
2082.50,71.69
2080.00,71.59
2077.50,71.45
2075.00,71.25
2072.50,70.99
2070.00,70.65
2067.50,70.21
2065.00,69.80
2062.50,69.30
2060.00,68.78
2057.50,68.26
2055.00,67.81
2052.50,67.57
2050.00,67.70
2047.50,68.38
2045.00,69.59
2042.50,71.12
2040.00,72.67
2037.50,73.93
2035.00,74.81
2032.50,75.29
2030.00,75.44
2027.50,75.31
2025.00,74.96
2022.50,74.45
2020.00,73.84
2017.50,73.11
2015.00,72.27
2012.50,71.37
2010.00,70.53
2007.50,69.88
2005.00,69.40
2002.50,68.93
2000.00,68.49
1997.50,68.21
1995.00,68.23
1992.50,68.41
1990.00,68.30
1987.50,67.89
1985.00,67.23
1982.50,66.35
1980.00,65.25
1977.50,63.91
1975.00,62.36
1972.50,60.63
1970.00,58.83
1967.50,57.08
1965.00,55.52
1962.50,54.20
1960.00,53.00
1957.50,51.81
1955.00,50.50
1952.50,49.05
1950.00,47.56
1947.50,46.23
1945.00,45.44
1942.50,45.63
1940.00,46.91
1937.50,49.07
1935.00,51.47
1932.50,53.57
1930.00,55.13
1927.50,56.21
1925.00,56.97
1922.50,57.63
1920.00,58.13
1917.50,58.89
1915.00,59.80
1912.50,61.00
1910.00,62.14
1907.50,63.10
1905.00,63.88
1902.50,64.48
1900.00,64.86
1897.50,65.04
1895.00,65.10
1892.50,65.07
1890.00,65.01
1887.50,64.94
1885.00,64.86
1882.50,64.77
1880.00,64.68
1877.50,64.58
1875.00,64.47
1872.50,64.38
1870.00,64.33
1867.50,64.31
1865.00,64.28
1862.50,64.28
1860.00,64.23
1857.50,64.10
1855.00,63.95
1852.50,63.87
1850.00,63.91
1847.50,64.06
1845.00,64.21
1842.50,64.35
1840.00,64.37
1837.50,64.32
1835.00,64.18
1832.50,63.99
1830.00,63.76
1827.50,63.43
1825.00,63.04
1822.50,62.64
1820.00,62.18
1817.50,61.65
1815.00,61.10
1812.50,60.52
1810.00,59.85
1807.50,59.17
1805.00,58.46
1802.50,57.72
1800.00,57.03
1797.50,56.35
1795.00,55.68
1792.50,55.09
1790.00,54.52
1787.50,54.05
1785.00,53.64
1782.50,53.33
1780.00,53.10
1777.50,52.94
1775.00,52.87
1772.50,52.94
1770.00,52.92
1767.50,53.02
1765.00,53.11
1762.50,53.23
1760.00,53.39
1757.50,53.48
1755.00,53.60
1752.50,53.65
1750.00,53.72
1747.50,53.69
1745.00,53.59
1742.50,53.44
1740.00,53.26
1737.50,52.95
1735.00,52.68
1732.50,52.24
1730.00,51.87
1727.50,51.52
1725.00,51.20
1722.50,50.96
1720.00,50.76
1717.50,50.63
1715.00,50.48
1712.50,50.35
1710.00,50.23
1707.50,50.12
1705.00,49.95
1702.50,49.79
1700.00,49.57
1697.50,49.35
1695.00,48.98
1692.50,48.64
1690.00,48.23
1687.50,47.74
1685.00,47.37
1682.50,46.85
1680.00,46.57
1677.50,46.27
1675.00,45.81
1672.50,45.38
1670.00,44.87
1667.50,44.15
1665.00,43.57
1662.50,42.90
1660.00,42.31
1657.50,41.72
1655.00,41.27
1652.50,40.41
1650.00,40.13
1647.50,39.69
1645.00,39.18
1642.50,38.82
1640.00,38.45
1637.50,38.11
1635.00,37.57
1632.50,37.24
1630.00,36.81
1627.50,36.32
1625.00,35.93
1622.50,35.40
1620.00,35.02
1617.50,34.70
1615.00,34.28
1612.50,34.09
1610.00,33.94
1607.50,33.77
1605.00,33.50
1602.50,32.79
1600.00,30.75
1597.50,27.85
1595.00,29.93
1592.50,33.41
1590.00,35.10
1587.50,36.16
1585.00,37.04
1582.50,37.85
1580.00,38.58
1577.50,39.18
1575.00,39.99
1572.50,40.46
1570.00,41.01
1567.50,41.51
1565.00,41.87
1562.50,42.16
1560.00,42.43
1557.50,42.69
1555.00,42.70
1552.50,42.80
1550.00,42.80
1547.50,42.79
1545.00,42.72
1542.50,42.65
1540.00,42.58
1537.50,42.36
1535.00,42.22
1532.50,42.08
1530.00,41.97
1527.50,41.92
1525.00,41.96
1522.50,41.99
1520.00,42.02
1517.50,41.99
1515.00,42.05
1512.50,42.03
1510.00,41.99
1507.50,41.98
1505.00,41.97
1502.50,41.88
1500.00,41.74
1497.50,41.42
1495.00,40.78
1492.50,39.97
1490.00,38.65
1487.50,37.40
1485.00,36.25
1482.50,35.53
1480.00,35.15
1477.50,34.92
1475.00,34.58
1472.50,33.83
1470.00,32.40
1467.50,30.33
1465.00,27.82
1462.50,24.95
1460.00,22.14
1457.50,19.32
1455.00,16.73
1452.50,14.49
1450.00,12.06
1447.50,10.22
1445.00,9.83
1442.50,10.70
1440.00,12.44
1437.50,14.03
1435.00,15.46
1432.50,15.53
1430.00,14.42
1427.50,12.21
1425.00,9.33
1422.50,5.77
1420.00,3.51
1417.50,1.69
1415.00,1.07
1412.50,0.88
1410.00,0.91
1407.50,1.11
1405.00,1.49
1402.50,1.88
1400.00,2.33
1397.50,3.59
1395.00,5.93
1392.50,9.20
1390.00,12.51
1387.50,15.31
1385.00,17.42
1382.50,19.26
1380.00,20.93
1377.50,22.14
1375.00,22.74
1372.50,23.09
1370.00,23.98
1367.50,25.15
1365.00,25.83
1362.50,26.35
1360.00,26.73
1357.50,27.03
1355.00,27.23
1352.50,27.28
1350.00,27.19
1347.50,27.00
1345.00,26.83
1342.50,26.78
1340.00,26.78
1337.50,26.66
1335.00,26.33
1332.50,25.75
1330.00,24.97
1327.50,24.00
1325.00,22.87
1322.50,21.62
1320.00,20.30
1317.50,18.89
1315.00,17.45
1312.50,15.95
1310.00,14.51
1307.50,13.09
1305.00,11.71
1302.50,10.32
1300.00,8.93
1297.50,7.52
1295.00,6.11
1292.50,4.79
1290.00,3.59
1287.50,2.54
1285.00,1.63
1282.50,0.90
1280.00,0.39
1277.50,0.11
1275.00,0.02
1272.50,0.00
1270.00,0.01
1267.50,0.01
1265.00,0.00
1262.50,0.00
1260.00,0.01
1257.50,0.01
1255.00,0.00
1252.50,0.00
1250.00,0.00
1247.50,0.02
1245.00,0.01
1242.50,0.07
1240.00,0.21
1237.50,0.39
1235.00,0.55
1232.50,0.64
1230.00,0.66
1227.50,0.58
1225.00,0.46
1222.50,0.33
1220.00,0.22
1217.50,0.14
1215.00,0.08
1212.50,0.04
1210.00,0.03
1207.50,0.02
1205.00,0.01
1202.50,0.00
1200.00,0.00
1197.50,0.01
1195.00,0.01
1192.50,0.00
1190.00,0.00
1187.50,0.01
1185.00,0.00
1182.50,0.00
1180.00,0.01
1177.50,0.00
1175.00,0.01
1172.50,0.01
1170.00,0.00
1167.50,0.00
1165.00,0.00
1162.50,0.01
1160.00,0.00
1157.50,0.01
1155.00,0.00
1152.50,0.01
1150.00,0.00
1147.50,0.01
1145.00,0.00
1142.50,0.01
1140.00,0.00
1137.50,0.01
1135.00,0.00
1132.50,0.01
1130.00,0.01
1127.50,0.00
1125.00,0.00
1122.50,0.01
1120.00,0.00
1117.50,0.00
1115.00,0.00
1112.50,0.01
1110.00,0.01
1107.50,0.00
1105.00,0.00
1102.50,0.01
1100.00,0.01
1097.50,0.01
1095.00,0.01
1092.50,0.00
1090.00,0.00
1087.50,0.00
1085.00,0.01
1082.50,0.01
1080.00,0.01
1077.50,0.01
1075.00,0.00
1072.50,0.01
1070.00,0.01
1067.50,0.00
1065.00,0.01
1062.50,0.01
1060.00,0.01
1057.50,0.01
1055.00,0.01
1052.50,0.01
1050.00,0.01
1047.50,0.01
1045.00,0.00
1042.50,0.01
1040.00,0.00
1037.50,0.00
1035.00,0.00
1032.50,0.01
1030.00,0.00
1027.50,0.00
1025.00,0.00
1022.50,0.01
1020.00,0.00
1017.50,0.00
1015.00,0.00
1012.50,0.00
1010.00,0.01
1007.50,0.01
1005.00,0.01
1002.50,0.01
1000.00,0.00
997.50,0.01
995.00,0.01
992.50,0.00
990.00,0.01
987.50,0.04
985.00,0.09
982.50,0.17
980.00,0.33
977.50,0.55
975.00,0.82
972.50,1.13
970.00,1.47
967.50,1.78
965.00,2.03
962.50,2.21
960.00,2.34
957.50,2.49
955.00,2.83
952.50,3.50
950.00,4.37
947.50,5.07
945.00,5.52
942.50,5.75
940.00,5.77
937.50,5.58
935.00,5.13
932.50,4.45
930.00,3.60
927.50,2.85
925.00,2.26
922.50,1.66
920.00,1.02
917.50,0.57
915.00,0.35
912.50,0.27
910.00,0.30
907.50,0.38
905.00,0.44
902.50,0.41
900.00,0.29
897.50,0.16
895.00,0.09
892.50,0.05
890.00,0.02
887.50,0.00
885.00,0.01
882.50,0.00
880.00,0.01
877.50,0.02
875.00,0.01
872.50,0.01
870.00,0.01
867.50,0.00
865.00,0.00
862.50,0.01
860.00,0.01
857.50,0.02
855.00,0.01
852.50,0.01
850.00,0.00
847.50,0.01
845.00,0.00
842.50,0.01
840.00,0.02
837.50,0.01
835.00,0.01
832.50,0.01
830.00,0.01
827.50,0.01
825.00,0.01
822.50,0.01
820.00,0.01
817.50,0.01
815.00,0.00
812.50,0.00
810.00,0.00
807.50,0.01
805.00,0.01
802.50,0.01
800.00,0.00
797.50,0.02
795.00,0.01
792.50,0.01
790.00,0.01
787.50,0.00
785.00,0.00
782.50,0.00
780.00,0.01
777.50,0.00
775.00,0.01
772.50,0.01
770.00,0.01
767.50,0.00
765.00,0.01
762.50,0.00
760.00,0.01
757.50,0.02
755.00,0.01
752.50,0.01
750.00,0.12
747.50,0.40
745.00,0.78
742.50,1.16
740.00,1.52
737.50,1.88
735.00,2.22
732.50,2.44
730.00,2.57
727.50,2.59
725.00,2.54
722.50,2.41
720.00,2.16
717.50,1.79
715.00,1.29
712.50,0.72
710.00,0.33
707.50,0.15
705.00,0.12
702.50,0.11
700.00,0.11
697.50,0.11
695.00,0.12
692.50,0.10
690.00,0.10
687.50,0.12
685.00,0.18
682.50,0.34
680.00,0.53
677.50,0.71
675.00,0.93
672.50,1.08
670.00,1.15
667.50,1.10
665.00,1.00
662.50,0.79
660.00,0.90
657.50,3.08
655.00,6.92
652.50,9.32
650.00,10.38
647.50,10.68
645.00,10.51
642.50,10.08
640.00,9.43
637.50,8.74
635.00,8.20
632.50,7.81
630.00,7.54
627.50,7.42
625.00,7.38
622.50,7.46
620.00,7.60
617.50,7.65
615.00,7.59
612.50,7.57
610.00,7.21
607.50,6.13
605.00,4.35
602.50,2.77
600.00,2.37
597.50,2.77
595.00,3.35
592.50,3.66
590.00,3.56
587.50,3.10
585.00,2.47
582.50,1.92
580.00,1.46
577.50,1.18
575.00,0.98
572.50,0.84
570.00,0.74
567.50,0.69
565.00,0.62
562.50,0.57
560.00,0.55
557.50,0.51
555.00,0.46
552.50,0.45
550.00,0.41
547.50,0.34
545.00,0.35
542.50,0.31
540.00,0.32
537.50,0.25
535.00,0.27
532.50,0.23
530.00,0.21
527.50,0.15
525.00,0.17
522.50,0.18
520.00,0.13
517.50,0.13
515.00,0.13
512.50,0.11
510.00,0.12
507.50,0.03
505.00,0.07
502.50,0.08
500.00,0.07
497.50,0.01
495.00,0.04
492.50,0.02
490.00,0.05
487.50,0.04
485.00,0.02
482.50,0.02
480.00,0.02
477.50,0.06
475.00,0.05
472.50,0.13
470.00,0.08
467.50,0.02
465.00,0.09
462.50,0.12
460.00,0.05
457.50,0.10
455.00,0.04
452.50,0.03
450.00,0.12
447.50,0.08
445.00,0.03
442.50,0.06
440.00,0.07
437.50,0.15
435.00,0.16
432.50,0.05
430.00,0.14
427.50,0.08
425.00,0.33
422.50,0.14
420.00,0.06
417.50,0.28
415.00,0.22
412.50,0.17
410.00,0.10
407.50,0.10
405.00,0.46
402.50,0.07
400.00,1.18