File: CSVs/190606_AuNP_PDMS_1/02_AuPDMS_02min.csv
Created as New Dataset,Sample 159 By irlear Date Thursday, June 06 2019
cm-1,%T
4000.00,79.21
3997.50,79.32
3995.00,79.44
3992.50,79.53
3990.00,79.65
3987.50,79.76
3985.00,79.90
3982.50,79.98
3980.00,80.08
3977.50,80.19
3975.00,80.29
3972.50,80.39
3970.00,80.48
3967.50,80.57
3965.00,80.66
3962.50,80.75
3960.00,80.83
3957.50,80.90
3955.00,80.95
3952.50,81.00
3950.00,81.04
3947.50,81.10
3945.00,81.10
3942.50,81.15
3940.00,81.21
3937.50,81.26
3935.00,81.30
3932.50,81.34
3930.00,81.37
3927.50,81.33
3925.00,81.35
3922.50,81.34
3920.00,81.32
3917.50,81.33
3915.00,81.26
3912.50,81.19
3910.00,81.13
3907.50,81.00
3905.00,81.01
3902.50,80.90
3900.00,80.76
3897.50,80.70
3895.00,80.61
3892.50,80.57
3890.00,80.50
3887.50,80.40
3885.00,80.42
3882.50,80.31
3880.00,80.27
3877.50,80.25
3875.00,80.09
3872.50,80.04
3870.00,80.01
3867.50,79.79
3865.00,79.65
3862.50,79.38
3860.00,79.06
3857.50,78.67
3855.00,78.26
3852.50,77.76
3850.00,77.24
3847.50,76.62
3845.00,75.95
3842.50,75.23
3840.00,74.61
3837.50,73.98
3835.00,73.50
3832.50,73.07
3830.00,72.73
3827.50,72.43
3825.00,72.24
3822.50,71.97
3820.00,71.91
3817.50,71.62
3815.00,71.32
3812.50,70.98
3810.00,70.55
3807.50,70.13
3805.00,69.70
3802.50,69.24
3800.00,68.76
3797.50,68.24
3795.00,67.59
3792.50,66.85
3790.00,65.95
3787.50,64.94
3785.00,63.87
3782.50,62.86
3780.00,61.89
3777.50,61.01
3775.00,60.20
3772.50,59.47
3770.00,58.83
3767.50,58.34
3765.00,57.99
3762.50,57.79
3760.00,57.66
3757.50,57.68
3755.00,57.80
3752.50,58.02
3750.00,58.53
3747.50,58.91
3745.00,59.21
3742.50,59.97
3740.00,60.46
3737.50,60.67
3735.00,60.50
3732.50,60.20
3730.00,59.46
3727.50,58.57
3725.00,57.37
3722.50,56.28
3720.00,55.33
3717.50,54.34
3715.00,53.31
3712.50,52.10
3710.00,50.90
3707.50,49.82
3705.00,48.93
3702.50,48.27
3700.00,48.05
3697.50,48.18
3695.00,48.61
3692.50,49.10
3690.00,49.95
3687.50,50.71
3685.00,51.16
3682.50,51.51
3680.00,51.67
3677.50,51.65
3675.00,51.31
3672.50,51.06
3670.00,50.37
3667.50,49.74
3665.00,48.98
3662.50,48.15
3660.00,47.27
3657.50,46.38
3655.00,45.33
3652.50,44.67
3650.00,43.91
3647.50,43.32
3645.00,43.13
3642.50,43.00
3640.00,43.04
3637.50,43.27
3635.00,43.59
3632.50,44.01
3630.00,44.41
3627.50,44.80
3625.00,45.11
3622.50,45.28
3620.00,45.31
3617.50,45.25
3615.00,45.20
3612.50,44.96
3610.00,44.84
3607.50,44.48
3605.00,44.26
3602.50,43.97
3600.00,43.67
3597.50,43.33
3595.00,43.04
3592.50,42.88
3590.00,42.82
3587.50,42.66
3585.00,42.62
3582.50,42.90
3580.00,43.25
3577.50,43.55
3575.00,43.80
3572.50,44.03
3570.00,44.31
3567.50,44.48
3565.00,44.71
3562.50,44.97
3560.00,45.10
3557.50,45.23
3555.00,45.31
3552.50,45.35
3550.00,45.35
3547.50,45.36
3545.00,45.31
3542.50,45.26
3540.00,45.18
3537.50,45.18
3535.00,45.07
3532.50,45.04
3530.00,45.02
3527.50,44.98
3525.00,45.01
3522.50,44.95
3520.00,44.97
3517.50,44.99
3515.00,45.06
3512.50,45.11
3510.00,45.16
3507.50,45.21
3505.00,45.33
3502.50,45.38
3500.00,45.43
3497.50,45.53
3495.00,45.57
3492.50,45.64
3490.00,45.72
3487.50,45.81
3485.00,45.88
3482.50,45.98
3480.00,46.08
3477.50,46.16
3475.00,46.26
3472.50,46.37
3470.00,46.52
3467.50,46.63
3465.00,46.72
3462.50,46.83
3460.00,46.96
3457.50,47.06
3455.00,47.20
3452.50,47.33
3450.00,47.49
3447.50,47.66
3445.00,47.79
3442.50,47.94
3440.00,48.10
3437.50,48.29
3435.00,48.44
3432.50,48.58
3430.00,48.72
3427.50,48.84
3425.00,48.96
3422.50,49.11
3420.00,49.23
3417.50,49.36
3415.00,49.52
3412.50,49.68
3410.00,49.83
3407.50,49.97
3405.00,50.14
3402.50,50.33
3400.00,50.49
3397.50,50.63
3395.00,50.80
3392.50,50.96
3390.00,51.10
3387.50,51.25
3385.00,51.41
3382.50,51.58
3380.00,51.76
3377.50,51.92
3375.00,52.07
3372.50,52.24
3370.00,52.42
3367.50,52.57
3365.00,52.69
3362.50,52.84
3360.00,53.00
3357.50,53.13
3355.00,53.29
3352.50,53.48
3350.00,53.65
3347.50,53.82
3345.00,54.03
3342.50,54.25
3340.00,54.47
3337.50,54.67
3335.00,54.85
3332.50,55.05
3330.00,55.24
3327.50,55.45
3325.00,55.63
3322.50,55.82
3320.00,56.02
3317.50,56.23
3315.00,56.47
3312.50,56.70
3310.00,56.94
3307.50,57.15
3305.00,57.35
3302.50,57.52
3300.00,57.68
3297.50,57.86
3295.00,58.02
3292.50,58.17
3290.00,58.30
3287.50,58.44
3285.00,58.59
3282.50,58.73
3280.00,58.86
3277.50,58.99
3275.00,59.12
3272.50,59.21
3270.00,59.30
3267.50,59.37
3265.00,59.44
3262.50,59.51
3260.00,59.57
3257.50,59.65
3255.00,59.71
3252.50,59.76
3250.00,59.81
3247.50,59.88
3245.00,59.92
3242.50,59.94
3240.00,59.97
3237.50,59.98
3235.00,59.99
3232.50,60.00
3230.00,59.98
3227.50,59.98
3225.00,59.98
3222.50,60.01
3220.00,60.04
3217.50,60.07
3215.00,60.10
3212.50,60.09
3210.00,60.09
3207.50,60.06
3205.00,60.01
3202.50,59.95
3200.00,59.88
3197.50,59.80
3195.00,59.69
3192.50,59.53
3190.00,59.34
3187.50,59.15
3185.00,59.10
3182.50,59.21
3180.00,59.39
3177.50,59.48
3175.00,59.49
3172.50,59.43
3170.00,59.32
3167.50,59.17
3165.00,58.98
3162.50,58.76
3160.00,58.49
3157.50,58.20
3155.00,57.88
3152.50,57.51
3150.00,57.08
3147.50,56.62
3145.00,56.12
3142.50,55.56
3140.00,54.96
3137.50,54.26
3135.00,53.53
3132.50,52.76
3130.00,51.99
3127.50,51.19
3125.00,50.43
3122.50,49.75
3120.00,49.14
3117.50,48.61
3115.00,48.16
3112.50,47.81
3110.00,47.58
3107.50,47.42
3105.00,47.32
3102.50,47.29
3100.00,47.29
3097.50,47.26
3095.00,47.24
3092.50,47.20
3090.00,47.11
3087.50,46.95
3085.00,46.76
3082.50,46.49
3080.00,46.17
3077.50,45.76
3075.00,45.26
3072.50,44.67
3070.00,43.95
3067.50,43.06
3065.00,41.86
3062.50,40.33
3060.00,38.46
3057.50,36.54
3055.00,35.08
3052.50,34.76
3050.00,35.93
3047.50,37.99
3045.00,39.76
3042.50,40.83
3040.00,41.38
3037.50,41.65
3035.00,41.74
3032.50,41.59
3030.00,41.23
3027.50,40.61
3025.00,39.72
3022.50,38.47
3020.00,37.00
3017.50,35.53
3015.00,34.37
3012.50,33.45
3010.00,32.43
3007.50,31.01
3005.00,29.14
3002.50,26.81
3000.00,24.09
2997.50,21.03
2995.00,17.62
2992.50,14.03
2990.00,10.37
2987.50,6.89
2985.00,3.95
2982.50,1.83
2980.00,0.59
2977.50,0.08
2975.00,-0.00
2972.50,0.04
2970.00,0.08
2967.50,0.08
2965.00,0.07
2962.50,0.05
2960.00,0.08
2957.50,0.08
2955.00,0.07
2952.50,0.02
2950.00,0.07
2947.50,0.40
2945.00,1.20
2942.50,2.53
2940.00,4.33
2937.50,6.46
2935.00,8.67
2932.50,10.74
2930.00,12.54
2927.50,13.83
2925.00,14.53
2922.50,14.47
2920.00,13.60
2917.50,11.90
2915.00,9.44
2912.50,6.68
2910.00,4.31
2907.50,2.86
2905.00,2.41
2902.50,2.84
2900.00,4.20
2897.50,6.59
2895.00,9.85
2892.50,13.55
2890.00,17.27
2887.50,20.75
2885.00,23.89
2882.50,26.69
2880.00,29.20
2877.50,31.49
2875.00,33.65
2872.50,35.70
2870.00,37.62
2867.50,39.30
2865.00,40.70
2862.50,41.80
2860.00,42.66
2857.50,43.30
2855.00,43.80
2852.50,44.20
2850.00,44.53
2847.50,44.83
2845.00,45.12
2842.50,45.38
2840.00,45.70
2837.50,46.14
2835.00,46.72
2832.50,47.33
2830.00,47.88
2827.50,48.25
2825.00,48.40
2822.50,48.32
2820.00,48.08
2817.50,47.75
2815.00,47.44
2812.50,47.26
2810.00,47.21
2807.50,47.32
2805.00,47.51
2802.50,47.73
2800.00,48.00
2797.50,48.40
2795.00,49.08
2792.50,50.24
2790.00,52.04
2787.50,54.49
2785.00,57.31
2782.50,60.12
2780.00,62.72
2777.50,65.02
2775.00,67.00
2772.50,68.74
2770.00,70.24
2767.50,71.53
2765.00,72.65
2762.50,73.60
2760.00,74.42
2757.50,75.12
2755.00,75.73
2752.50,76.28
2750.00,76.75
2747.50,77.19
2745.00,77.62
2742.50,78.01
2740.00,78.37
2737.50,78.67
2735.00,78.95
2732.50,79.19
2730.00,79.39
2727.50,79.56
2725.00,79.69
2722.50,79.79
2720.00,79.84
2717.50,79.82
2715.00,79.78
2712.50,79.71
2710.00,79.66
2707.50,79.66
2705.00,79.74
2702.50,79.87
2700.00,80.03
2697.50,80.16
2695.00,80.26
2692.50,80.29
2690.00,80.26
2687.50,80.12
2685.00,79.88
2682.50,79.52
2680.00,79.05
2677.50,78.49
2675.00,77.85
2672.50,77.14
2670.00,76.43
2667.50,75.79
2665.00,75.34
2662.50,75.16
2660.00,75.29
2657.50,75.72
2655.00,76.40
2652.50,77.28
2650.00,78.26
2647.50,79.26
2645.00,80.17
2642.50,80.99
2640.00,81.68
2637.50,82.25
2635.00,82.74
2632.50,83.15
2630.00,83.50
2627.50,83.79
2625.00,84.05
2622.50,84.29
2620.00,84.49
2617.50,84.66
2615.00,84.81
2612.50,84.95
2610.00,85.06
2607.50,85.16
2605.00,85.25
2602.50,85.33
2600.00,85.40
2597.50,85.46
2595.00,85.51
2592.50,85.56
2590.00,85.63
2587.50,85.68
2585.00,85.73
2582.50,85.78
2580.00,85.82
2577.50,85.84
2575.00,85.86
2572.50,85.89
2570.00,85.91
2567.50,85.92
2565.00,85.94
2562.50,85.95
2560.00,85.95
2557.50,85.95
2555.00,85.94
2552.50,85.93
2550.00,85.90
2547.50,85.88
2545.00,85.84
2542.50,85.81
2540.00,85.76
2537.50,85.70
2535.00,85.62
2532.50,85.52
2530.00,85.37
2527.50,85.19
2525.00,84.99
2522.50,84.75
2520.00,84.46
2517.50,84.12
2515.00,83.65
2512.50,83.00
2510.00,82.03
2507.50,80.56
2505.00,78.49
2502.50,76.24
2500.00,74.94
2497.50,75.33
2495.00,76.81
2492.50,78.50
2490.00,80.08
2487.50,81.46
2485.00,82.57
2482.50,83.40
2480.00,84.00
2477.50,84.44
2475.00,84.78
2472.50,85.04
2470.00,85.24
2467.50,85.40
2465.00,85.53
2462.50,85.64
2460.00,85.73
2457.50,85.81
2455.00,85.88
2452.50,85.94
2450.00,85.99
2447.50,86.04
2445.00,86.07
2442.50,86.10
2440.00,86.12
2437.50,86.13
2435.00,86.15
2432.50,86.16
2430.00,86.16
2427.50,86.17
2425.00,86.17
2422.50,86.17
2420.00,86.17
2417.50,86.16
2415.00,86.14
2412.50,86.13
2410.00,86.11
2407.50,86.09
2405.00,86.08
2402.50,86.07
2400.00,86.06
2397.50,86.05
2395.00,86.03
2392.50,86.01
2390.00,85.99
2387.50,85.95
2385.00,85.92
2382.50,85.89
2380.00,85.83
2377.50,85.77
2375.00,85.72
2372.50,85.71
2370.00,85.69
2367.50,85.64
2365.00,85.60
2362.50,85.57
2360.00,85.53
2357.50,85.48
2355.00,85.40
2352.50,85.31
2350.00,85.30
2347.50,85.22
2345.00,85.18
2342.50,85.14
2340.00,84.99
2337.50,84.92
2335.00,84.91
2332.50,84.89
2330.00,84.85
2327.50,84.79
2325.00,84.70
2322.50,84.61
2320.00,84.53
2317.50,84.44
2315.00,84.33
2312.50,84.21
2310.00,84.10
2307.50,83.99
2305.00,83.85
2302.50,83.72
2300.00,83.56
2297.50,83.39
2295.00,83.20
2292.50,83.00
2290.00,82.78
2287.50,82.55
2285.00,82.30
2282.50,82.05
2280.00,81.81
2277.50,81.59
2275.00,81.40
2272.50,81.27
2270.00,81.16
2267.50,81.08
2265.00,80.99
2262.50,80.88
2260.00,80.75
2257.50,80.61
2255.00,80.44
2252.50,80.25
2250.00,80.03
2247.50,79.78
2245.00,79.50
2242.50,79.19
2240.00,78.84
2237.50,78.44
2235.00,77.98
2232.50,77.46
2230.00,76.87
2227.50,76.22
2225.00,75.49
2222.50,74.71
2220.00,73.88
2217.50,72.96
2215.00,71.93
2212.50,70.77
2210.00,69.45
2207.50,67.92
2205.00,66.17
2202.50,64.17
2200.00,61.90
2197.50,59.31
2195.00,56.39
2192.50,53.11
2190.00,49.50
2187.50,45.57
2185.00,41.38
2182.50,37.07
2180.00,32.80
2177.50,28.77
2175.00,25.18
2172.50,22.18
2170.00,19.84
2167.50,18.14
2165.00,17.09
2162.50,16.70
2160.00,16.99
2157.50,17.93
2155.00,19.52
2152.50,21.79
2150.00,24.73
2147.50,28.26
2145.00,32.25
2142.50,36.54
2140.00,40.94
2137.50,45.25
2135.00,49.33
2132.50,53.03
2130.00,56.27
2127.50,59.02
2125.00,61.32
2122.50,63.24
2120.00,64.85
2117.50,66.16
2115.00,67.24
2112.50,68.11
2110.00,68.83
2107.50,69.44
2105.00,69.98
2102.50,70.47
2100.00,70.90
2097.50,71.27
2095.00,71.57
2092.50,71.78
2090.00,71.90
2087.50,71.91
2085.00,71.88
2082.50,71.81
2080.00,71.71
2077.50,71.57
2075.00,71.37
2072.50,71.09
2070.00,70.75
2067.50,70.31
2065.00,69.88
2062.50,69.40
2060.00,68.89
2057.50,68.39
2055.00,67.96
2052.50,67.73
2050.00,67.88
2047.50,68.55
2045.00,69.74
2042.50,71.22
2040.00,72.73
2037.50,73.95
2035.00,74.80
2032.50,75.27
2030.00,75.42
2027.50,75.30
2025.00,74.97
2022.50,74.49
2020.00,73.89
2017.50,73.17
2015.00,72.35
2012.50,71.46
2010.00,70.63
2007.50,69.96
2005.00,69.47
2002.50,69.00
2000.00,68.57
1997.50,68.31
1995.00,68.32
1992.50,68.48
1990.00,68.38
1987.50,67.97
1985.00,67.32
1982.50,66.43
1980.00,65.32
1977.50,63.99
1975.00,62.45
1972.50,60.74
1970.00,58.95
1967.50,57.23
1965.00,55.69
1962.50,54.39
1960.00,53.20
1957.50,52.02
1955.00,50.73
1952.50,49.29
1950.00,47.82
1947.50,46.52
1945.00,45.75
1942.50,45.95
1940.00,47.24
1937.50,49.37
1935.00,51.71
1932.50,53.77
1930.00,55.32
1927.50,56.40
1925.00,57.16
1922.50,57.81
1920.00,58.32
1917.50,59.07
1915.00,59.95
1912.50,61.11
1910.00,62.21
1907.50,63.17
1905.00,63.93
1902.50,64.52
1900.00,64.91
1897.50,65.11
1895.00,65.18
1892.50,65.18
1890.00,65.08
1887.50,65.02
1885.00,64.92
1882.50,64.82
1880.00,64.71
1877.50,64.61
1875.00,64.51
1872.50,64.44
1870.00,64.37
1867.50,64.39
1865.00,64.38
1862.50,64.39
1860.00,64.34
1857.50,64.20
1855.00,64.03
1852.50,63.94
1850.00,63.95
1847.50,64.08
1845.00,64.26
1842.50,64.38
1840.00,64.42
1837.50,64.37
1835.00,64.27
1832.50,64.06
1830.00,63.85
1827.50,63.51
1825.00,63.10
1822.50,62.70
1820.00,62.22
1817.50,61.69
1815.00,61.15
1812.50,60.56
1810.00,59.92
1807.50,59.26
1805.00,58.57
1802.50,57.83
1800.00,57.16
1797.50,56.48
1795.00,55.80
1792.50,55.25
1790.00,54.62
1787.50,54.16
1785.00,53.75
1782.50,53.43
1780.00,53.20
1777.50,53.07
1775.00,53.00
1772.50,53.13
1770.00,53.08
1767.50,53.16
1765.00,53.26
1762.50,53.38
1760.00,53.50
1757.50,53.59
1755.00,53.71
1752.50,53.74
1750.00,53.83
1747.50,53.84
1745.00,53.74
1742.50,53.60
1740.00,53.49
1737.50,53.15
1735.00,52.93
1732.50,52.42
1730.00,52.01
1727.50,51.70
1725.00,51.37
1722.50,51.13
1720.00,50.93
1717.50,50.83
1715.00,50.72
1712.50,50.59
1710.00,50.49
1707.50,50.37
1705.00,50.21
1702.50,50.05
1700.00,49.88
1697.50,49.60
1695.00,49.23
1692.50,48.94
1690.00,48.54
1687.50,48.09
1685.00,47.66
1682.50,47.27
1680.00,46.98
1677.50,46.72
1675.00,46.30
1672.50,45.82
1670.00,45.34
1667.50,44.58
1665.00,44.02
1662.50,43.40
1660.00,42.81
1657.50,42.23
1655.00,41.77
1652.50,40.89
1650.00,40.68
1647.50,40.25
1645.00,39.71
1642.50,39.35
1640.00,38.96
1637.50,38.60
1635.00,38.04
1632.50,37.72
1630.00,37.29
1627.50,36.80
1625.00,36.39
1622.50,35.87
1620.00,35.46
1617.50,35.09
1615.00,34.68
1612.50,34.47
1610.00,34.31
1607.50,34.13
1605.00,33.85
1602.50,33.18
1600.00,31.22
1597.50,28.42
1595.00,30.42
1592.50,33.78
1590.00,35.43
1587.50,36.46
1585.00,37.32
1582.50,38.11
1580.00,38.83
1577.50,39.39
1575.00,40.22
1572.50,40.68
1570.00,41.25
1567.50,41.74
1565.00,42.09
1562.50,42.37
1560.00,42.60
1557.50,42.89
1555.00,42.90
1552.50,42.99
1550.00,42.94
1547.50,42.96
1545.00,42.89
1542.50,42.89
1540.00,42.83
1537.50,42.54
1535.00,42.39
1532.50,42.25
1530.00,42.16
1527.50,42.08
1525.00,42.14
1522.50,42.18
1520.00,42.18
1517.50,42.10
1515.00,42.19
1512.50,42.19
1510.00,42.11
1507.50,42.08
1505.00,42.13
1502.50,42.04
1500.00,41.92
1497.50,41.59
1495.00,40.93
1492.50,40.10
1490.00,38.78
1487.50,37.56
1485.00,36.46
1482.50,35.77
1480.00,35.38
1477.50,35.14
1475.00,34.79
1472.50,34.05
1470.00,32.56
1467.50,30.50
1465.00,28.05
1462.50,25.19
1460.00,22.40
1457.50,19.66
1455.00,17.01
1452.50,14.80
1450.00,12.39
1447.50,10.57
1445.00,10.19
1442.50,11.07
1440.00,12.78
1437.50,14.33
1435.00,15.67
1432.50,15.70
1430.00,14.57
1427.50,12.36
1425.00,9.48
1422.50,5.94
1420.00,3.66
1417.50,1.79
1415.00,1.15
1412.50,0.95
1410.00,0.97
1407.50,1.19
1405.00,1.59
1402.50,1.98
1400.00,2.47
1397.50,3.76
1395.00,6.13
1392.50,9.39
1390.00,12.68
1387.50,15.47
1385.00,17.58
1382.50,19.42
1380.00,21.08
1377.50,22.28
1375.00,22.89
1372.50,23.25
1370.00,24.14
1367.50,25.29
1365.00,25.96
1362.50,26.46
1360.00,26.85
1357.50,27.15
1355.00,27.34
1352.50,27.39
1350.00,27.30
1347.50,27.11
1345.00,26.94
1342.50,26.88
1340.00,26.84
1337.50,26.72
1335.00,26.39
1332.50,25.81
1330.00,25.02
1327.50,24.05
1325.00,22.93
1322.50,21.68
1320.00,20.36
1317.50,18.93
1315.00,17.50
1312.50,16.00
1310.00,14.56
1307.50,13.12
1305.00,11.73
1302.50,10.34
1300.00,8.94
1297.50,7.53
1295.00,6.12
1292.50,4.79
1290.00,3.60
1287.50,2.54
1285.00,1.63
1282.50,0.90
1280.00,0.39
1277.50,0.11
1275.00,0.01
1272.50,0.00
1270.00,0.01
1267.50,0.00
1265.00,0.00
1262.50,0.00
1260.00,0.00
1257.50,0.00
1255.00,0.01
1252.50,0.00
1250.00,0.01
1247.50,0.01
1245.00,0.01
1242.50,0.07
1240.00,0.20
1237.50,0.39
1235.00,0.56
1232.50,0.65
1230.00,0.66
1227.50,0.60
1225.00,0.48
1222.50,0.35
1220.00,0.24
1217.50,0.15
1215.00,0.09
1212.50,0.05
1210.00,0.03
1207.50,0.02
1205.00,0.01
1202.50,0.00
1200.00,0.01
1197.50,0.00
1195.00,0.00
1192.50,0.00
1190.00,0.00
1187.50,0.01
1185.00,0.00
1182.50,0.01
1180.00,0.00
1177.50,0.01
1175.00,0.00
1172.50,0.01
1170.00,0.01
1167.50,0.01
1165.00,0.00
1162.50,0.00
1160.00,0.00
1157.50,0.00
1155.00,0.00
1152.50,0.00
1150.00,0.01
1147.50,0.00
1145.00,0.01
1142.50,0.00
1140.00,0.00
1137.50,0.00
1135.00,0.01
1132.50,0.00
1130.00,0.00
1127.50,0.00
1125.00,0.01
1122.50,0.00
1120.00,0.00
1117.50,0.00
1115.00,0.00
1112.50,0.01
1110.00,0.00
1107.50,0.00
1105.00,0.01
1102.50,0.01
1100.00,0.01
1097.50,0.01
1095.00,0.00
1092.50,0.01
1090.00,0.01
1087.50,0.01
1085.00,0.00
1082.50,0.00
1080.00,0.00
1077.50,0.01
1075.00,0.01
1072.50,0.01
1070.00,0.01
1067.50,0.01
1065.00,0.01
1062.50,0.01
1060.00,0.01
1057.50,0.00
1055.00,0.01
1052.50,0.01
1050.00,0.01
1047.50,0.00
1045.00,0.01
1042.50,0.01
1040.00,0.00
1037.50,0.00
1035.00,0.01
1032.50,0.01
1030.00,0.00
1027.50,0.01
1025.00,0.00
1022.50,0.01
1020.00,0.01
1017.50,0.01
1015.00,0.01
1012.50,0.01
1010.00,0.01
1007.50,0.00
1005.00,0.00
1002.50,0.00
1000.00,0.01
997.50,0.00
995.00,0.00
992.50,0.00
990.00,0.01
987.50,0.04
985.00,0.08
982.50,0.18
980.00,0.33
977.50,0.54
975.00,0.81
972.50,1.12
970.00,1.45
967.50,1.79
965.00,2.05
962.50,2.25
960.00,2.40
957.50,2.56
955.00,2.89
952.50,3.56
950.00,4.41
947.50,5.11
945.00,5.54
942.50,5.78
940.00,5.82
937.50,5.65
935.00,5.22
932.50,4.54
930.00,3.72
927.50,2.96
925.00,2.36
922.50,1.74
920.00,1.08
917.50,0.59
915.00,0.37
912.50,0.29
910.00,0.31
907.50,0.39
905.00,0.44
902.50,0.40
900.00,0.30
897.50,0.17
895.00,0.09
892.50,0.04
890.00,0.01
887.50,0.00
885.00,0.01
882.50,0.01
880.00,0.01
877.50,0.01
875.00,0.01
872.50,0.02
870.00,0.01
867.50,0.01
865.00,0.01
862.50,0.01
860.00,0.01
857.50,0.00
855.00,0.01
852.50,0.01
850.00,0.00
847.50,0.00
845.00,0.01
842.50,0.00
840.00,0.01
837.50,0.00
835.00,0.00
832.50,0.01
830.00,0.02
827.50,0.01
825.00,0.01
822.50,0.01
820.00,0.01
817.50,0.01
815.00,0.02
812.50,0.01
810.00,0.01
807.50,0.02
805.00,0.01
802.50,0.01
800.00,0.01
797.50,0.01
795.00,0.01
792.50,0.00
790.00,0.01
787.50,0.01
785.00,0.01
782.50,0.01
780.00,0.00
777.50,0.01
775.00,0.01
772.50,0.01
770.00,0.02
767.50,0.02
765.00,0.01
762.50,0.00
760.00,0.01
757.50,0.00
755.00,0.02
752.50,0.02
750.00,0.13
747.50,0.40
745.00,0.79
742.50,1.14
740.00,1.49
737.50,1.86
735.00,2.18
732.50,2.40
730.00,2.53
727.50,2.56
725.00,2.52
722.50,2.41
720.00,2.18
717.50,1.81
715.00,1.31
712.50,0.75
710.00,0.35
707.50,0.16
705.00,0.12
702.50,0.11
700.00,0.11
697.50,0.14
695.00,0.13
692.50,0.11
690.00,0.10
687.50,0.13
685.00,0.20
682.50,0.34
680.00,0.53
677.50,0.78
675.00,0.97
672.50,1.12
670.00,1.17
667.50,1.14
665.00,1.04
662.50,0.82
660.00,0.93
657.50,3.05
655.00,6.92
652.50,9.36
650.00,10.44
647.50,10.78
645.00,10.65
642.50,10.22
640.00,9.61
637.50,8.94
635.00,8.37
632.50,7.99
630.00,7.71
627.50,7.58
625.00,7.59
622.50,7.63
620.00,7.76
617.50,7.84
615.00,7.77
612.50,7.70
610.00,7.34
607.50,6.28
605.00,4.46
602.50,2.88
600.00,2.47
597.50,2.83
595.00,3.43
592.50,3.77
590.00,3.64
587.50,3.20
585.00,2.57
582.50,1.99
580.00,1.52
577.50,1.21
575.00,1.00
572.50,0.89
570.00,0.80
567.50,0.76
565.00,0.66
562.50,0.61
560.00,0.58
557.50,0.51
555.00,0.47
552.50,0.46
550.00,0.44
547.50,0.38
545.00,0.37
542.50,0.34
540.00,0.35
537.50,0.29
535.00,0.29
532.50,0.25
530.00,0.20
527.50,0.17
525.00,0.15
522.50,0.15
520.00,0.15
517.50,0.13
515.00,0.14
512.50,0.09
510.00,0.14
507.50,0.09
505.00,0.08
502.50,0.06
500.00,0.06
497.50,0.06
495.00,0.15
492.50,0.06
490.00,0.02
487.50,0.13
485.00,0.06
482.50,0.07
480.00,0.02
477.50,0.04
475.00,0.05
472.50,0.06
470.00,0.03
467.50,0.04
465.00,0.04
462.50,0.03
460.00,0.02
457.50,0.02
455.00,0.06
452.50,0.07
450.00,0.10
447.50,0.09
445.00,0.10
442.50,0.13
440.00,0.12
437.50,0.02
435.00,0.11
432.50,0.06
430.00,0.04
427.50,0.11
425.00,0.12
422.50,0.25
420.00,0.16
417.50,0.11
415.00,0.25
412.50,0.18
410.00,0.08
407.50,0.14
405.00,0.15
402.50,0.37
400.00,0.37