File: CSVs/190606_AuNP_PDMS_1/03_AuPDMS_03min.csv
Created as New Dataset,Sample 160 By irlear Date Thursday, June 06 2019
cm-1,%T
4000.00,79.27
3997.50,79.38
3995.00,79.49
3992.50,79.59
3990.00,79.71
3987.50,79.81
3985.00,79.95
3982.50,80.03
3980.00,80.13
3977.50,80.25
3975.00,80.34
3972.50,80.45
3970.00,80.54
3967.50,80.63
3965.00,80.72
3962.50,80.82
3960.00,80.89
3957.50,80.96
3955.00,81.01
3952.50,81.05
3950.00,81.10
3947.50,81.15
3945.00,81.15
3942.50,81.21
3940.00,81.27
3937.50,81.32
3935.00,81.37
3932.50,81.41
3930.00,81.43
3927.50,81.39
3925.00,81.41
3922.50,81.40
3920.00,81.38
3917.50,81.39
3915.00,81.31
3912.50,81.25
3910.00,81.19
3907.50,81.07
3905.00,81.08
3902.50,80.98
3900.00,80.83
3897.50,80.76
3895.00,80.66
3892.50,80.63
3890.00,80.55
3887.50,80.46
3885.00,80.47
3882.50,80.36
3880.00,80.33
3877.50,80.30
3875.00,80.15
3872.50,80.11
3870.00,80.08
3867.50,79.85
3865.00,79.72
3862.50,79.44
3860.00,79.11
3857.50,78.71
3855.00,78.31
3852.50,77.79
3850.00,77.28
3847.50,76.66
3845.00,75.99
3842.50,75.28
3840.00,74.65
3837.50,74.02
3835.00,73.55
3832.50,73.10
3830.00,72.76
3827.50,72.46
3825.00,72.27
3822.50,71.99
3820.00,71.94
3817.50,71.65
3815.00,71.34
3812.50,71.01
3810.00,70.59
3807.50,70.16
3805.00,69.73
3802.50,69.28
3800.00,68.78
3797.50,68.27
3795.00,67.62
3792.50,66.86
3790.00,65.95
3787.50,64.94
3785.00,63.88
3782.50,62.86
3780.00,61.89
3777.50,61.01
3775.00,60.19
3772.50,59.47
3770.00,58.83
3767.50,58.34
3765.00,57.98
3762.50,57.78
3760.00,57.65
3757.50,57.67
3755.00,57.79
3752.50,58.01
3750.00,58.53
3747.50,58.92
3745.00,59.21
3742.50,59.99
3740.00,60.46
3737.50,60.68
3735.00,60.53
3732.50,60.21
3730.00,59.47
3727.50,58.58
3725.00,57.39
3722.50,56.28
3720.00,55.33
3717.50,54.34
3715.00,53.31
3712.50,52.11
3710.00,50.91
3707.50,49.83
3705.00,48.93
3702.50,48.27
3700.00,48.05
3697.50,48.18
3695.00,48.60
3692.50,49.11
3690.00,49.96
3687.50,50.72
3685.00,51.17
3682.50,51.52
3680.00,51.69
3677.50,51.68
3675.00,51.32
3672.50,51.08
3670.00,50.39
3667.50,49.75
3665.00,48.99
3662.50,48.15
3660.00,47.27
3657.50,46.38
3655.00,45.33
3652.50,44.67
3650.00,43.93
3647.50,43.33
3645.00,43.13
3642.50,43.00
3640.00,43.04
3637.50,43.26
3635.00,43.57
3632.50,44.01
3630.00,44.41
3627.50,44.80
3625.00,45.10
3622.50,45.28
3620.00,45.31
3617.50,45.25
3615.00,45.21
3612.50,44.96
3610.00,44.85
3607.50,44.49
3605.00,44.26
3602.50,43.97
3600.00,43.67
3597.50,43.33
3595.00,43.04
3592.50,42.87
3590.00,42.82
3587.50,42.67
3585.00,42.62
3582.50,42.91
3580.00,43.26
3577.50,43.55
3575.00,43.80
3572.50,44.03
3570.00,44.31
3567.50,44.50
3565.00,44.71
3562.50,44.96
3560.00,45.09
3557.50,45.23
3555.00,45.32
3552.50,45.36
3550.00,45.36
3547.50,45.38
3545.00,45.32
3542.50,45.26
3540.00,45.18
3537.50,45.17
3535.00,45.06
3532.50,45.04
3530.00,45.01
3527.50,44.98
3525.00,45.02
3522.50,44.95
3520.00,44.97
3517.50,45.00
3515.00,45.07
3512.50,45.12
3510.00,45.17
3507.50,45.22
3505.00,45.33
3502.50,45.37
3500.00,45.43
3497.50,45.53
3495.00,45.58
3492.50,45.65
3490.00,45.74
3487.50,45.83
3485.00,45.90
3482.50,46.00
3480.00,46.10
3477.50,46.17
3475.00,46.27
3472.50,46.38
3470.00,46.52
3467.50,46.64
3465.00,46.73
3462.50,46.85
3460.00,46.98
3457.50,47.09
3455.00,47.22
3452.50,47.36
3450.00,47.51
3447.50,47.69
3445.00,47.81
3442.50,47.96
3440.00,48.11
3437.50,48.30
3435.00,48.44
3432.50,48.59
3430.00,48.74
3427.50,48.86
3425.00,49.00
3422.50,49.15
3420.00,49.27
3417.50,49.40
3415.00,49.55
3412.50,49.70
3410.00,49.85
3407.50,49.99
3405.00,50.14
3402.50,50.34
3400.00,50.50
3397.50,50.65
3395.00,50.83
3392.50,51.00
3390.00,51.14
3387.50,51.29
3385.00,51.45
3382.50,51.60
3380.00,51.77
3377.50,51.93
3375.00,52.08
3372.50,52.25
3370.00,52.43
3367.50,52.59
3365.00,52.72
3362.50,52.88
3360.00,53.03
3357.50,53.16
3355.00,53.32
3352.50,53.49
3350.00,53.67
3347.50,53.83
3345.00,54.04
3342.50,54.25
3340.00,54.47
3337.50,54.69
3335.00,54.87
3332.50,55.07
3330.00,55.27
3327.50,55.48
3325.00,55.67
3322.50,55.84
3320.00,56.03
3317.50,56.24
3315.00,56.47
3312.50,56.70
3310.00,56.94
3307.50,57.15
3305.00,57.36
3302.50,57.53
3300.00,57.70
3297.50,57.89
3295.00,58.04
3292.50,58.20
3290.00,58.32
3287.50,58.46
3285.00,58.60
3282.50,58.72
3280.00,58.86
3277.50,58.99
3275.00,59.11
3272.50,59.22
3270.00,59.31
3267.50,59.39
3265.00,59.47
3262.50,59.53
3260.00,59.59
3257.50,59.66
3255.00,59.72
3252.50,59.75
3250.00,59.81
3247.50,59.87
3245.00,59.92
3242.50,59.94
3240.00,59.97
3237.50,60.00
3235.00,60.01
3232.50,60.01
3230.00,60.00
3227.50,59.99
3225.00,59.99
3222.50,60.01
3220.00,60.04
3217.50,60.05
3215.00,60.08
3212.50,60.08
3210.00,60.08
3207.50,60.05
3205.00,60.01
3202.50,59.96
3200.00,59.89
3197.50,59.80
3195.00,59.69
3192.50,59.53
3190.00,59.33
3187.50,59.13
3185.00,59.08
3182.50,59.20
3180.00,59.37
3177.50,59.47
3175.00,59.48
3172.50,59.43
3170.00,59.32
3167.50,59.17
3165.00,58.97
3162.50,58.74
3160.00,58.47
3157.50,58.17
3155.00,57.85
3152.50,57.49
3150.00,57.05
3147.50,56.60
3145.00,56.10
3142.50,55.54
3140.00,54.94
3137.50,54.25
3135.00,53.51
3132.50,52.74
3130.00,51.95
3127.50,51.16
3125.00,50.40
3122.50,49.72
3120.00,49.11
3117.50,48.57
3115.00,48.14
3112.50,47.79
3110.00,47.56
3107.50,47.40
3105.00,47.31
3102.50,47.27
3100.00,47.28
3097.50,47.25
3095.00,47.23
3092.50,47.18
3090.00,47.10
3087.50,46.95
3085.00,46.76
3082.50,46.50
3080.00,46.17
3077.50,45.77
3075.00,45.27
3072.50,44.68
3070.00,43.96
3067.50,43.07
3065.00,41.87
3062.50,40.33
3060.00,38.46
3057.50,36.54
3055.00,35.08
3052.50,34.76
3050.00,35.93
3047.50,37.99
3045.00,39.77
3042.50,40.83
3040.00,41.39
3037.50,41.65
3035.00,41.74
3032.50,41.59
3030.00,41.23
3027.50,40.61
3025.00,39.72
3022.50,38.47
3020.00,36.99
3017.50,35.53
3015.00,34.36
3012.50,33.44
3010.00,32.41
3007.50,30.99
3005.00,29.12
3002.50,26.79
3000.00,24.07
2997.50,21.01
2995.00,17.61
2992.50,14.01
2990.00,10.34
2987.50,6.88
2985.00,3.93
2982.50,1.81
2980.00,0.59
2977.50,0.08
2975.00,-0.01
2972.50,0.04
2970.00,0.07
2967.50,0.08
2965.00,0.07
2962.50,0.05
2960.00,0.08
2957.50,0.08
2955.00,0.06
2952.50,0.02
2950.00,0.06
2947.50,0.40
2945.00,1.19
2942.50,2.52
2940.00,4.31
2937.50,6.44
2935.00,8.64
2932.50,10.71
2930.00,12.51
2927.50,13.80
2925.00,14.49
2922.50,14.44
2920.00,13.57
2917.50,11.86
2915.00,9.41
2912.50,6.66
2910.00,4.29
2907.50,2.85
2905.00,2.40
2902.50,2.83
2900.00,4.18
2897.50,6.56
2895.00,9.82
2892.50,13.52
2890.00,17.24
2887.50,20.72
2885.00,23.85
2882.50,26.66
2880.00,29.17
2877.50,31.47
2875.00,33.63
2872.50,35.69
2870.00,37.60
2867.50,39.28
2865.00,40.68
2862.50,41.80
2860.00,42.65
2857.50,43.30
2855.00,43.79
2852.50,44.19
2850.00,44.52
2847.50,44.82
2845.00,45.10
2842.50,45.36
2840.00,45.68
2837.50,46.12
2835.00,46.70
2832.50,47.32
2830.00,47.87
2827.50,48.24
2825.00,48.39
2822.50,48.31
2820.00,48.06
2817.50,47.73
2815.00,47.42
2812.50,47.23
2810.00,47.18
2807.50,47.30
2805.00,47.48
2802.50,47.71
2800.00,47.98
2797.50,48.38
2795.00,49.06
2792.50,50.22
2790.00,52.02
2787.50,54.47
2785.00,57.29
2782.50,60.11
2780.00,62.72
2777.50,65.02
2775.00,67.01
2772.50,68.75
2770.00,70.26
2767.50,71.56
2765.00,72.68
2762.50,73.63
2760.00,74.45
2757.50,75.15
2755.00,75.76
2752.50,76.30
2750.00,76.77
2747.50,77.22
2745.00,77.65
2742.50,78.05
2740.00,78.40
2737.50,78.71
2735.00,78.99
2732.50,79.23
2730.00,79.44
2727.50,79.60
2725.00,79.72
2722.50,79.82
2720.00,79.86
2717.50,79.85
2715.00,79.81
2712.50,79.74
2710.00,79.70
2707.50,79.70
2705.00,79.78
2702.50,79.91
2700.00,80.07
2697.50,80.20
2695.00,80.29
2692.50,80.33
2690.00,80.29
2687.50,80.15
2685.00,79.90
2682.50,79.55
2680.00,79.08
2677.50,78.52
2675.00,77.88
2672.50,77.17
2670.00,76.46
2667.50,75.81
2665.00,75.35
2662.50,75.17
2660.00,75.30
2657.50,75.73
2655.00,76.41
2652.50,77.29
2650.00,78.28
2647.50,79.28
2645.00,80.20
2642.50,81.02
2640.00,81.71
2637.50,82.29
2635.00,82.78
2632.50,83.19
2630.00,83.53
2627.50,83.82
2625.00,84.08
2622.50,84.33
2620.00,84.53
2617.50,84.70
2615.00,84.85
2612.50,84.99
2610.00,85.10
2607.50,85.21
2605.00,85.30
2602.50,85.37
2600.00,85.44
2597.50,85.50
2595.00,85.55
2592.50,85.60
2590.00,85.66
2587.50,85.72
2585.00,85.77
2582.50,85.82
2580.00,85.86
2577.50,85.88
2575.00,85.90
2572.50,85.93
2570.00,85.95
2567.50,85.97
2565.00,85.98
2562.50,85.98
2560.00,85.99
2557.50,85.99
2555.00,85.98
2552.50,85.97
2550.00,85.95
2547.50,85.92
2545.00,85.89
2542.50,85.85
2540.00,85.80
2537.50,85.74
2535.00,85.67
2532.50,85.55
2530.00,85.41
2527.50,85.24
2525.00,85.02
2522.50,84.78
2520.00,84.50
2517.50,84.15
2515.00,83.69
2512.50,83.03
2510.00,82.07
2507.50,80.59
2505.00,78.52
2502.50,76.25
2500.00,74.94
2497.50,75.34
2495.00,76.82
2492.50,78.51
2490.00,80.10
2487.50,81.47
2485.00,82.60
2482.50,83.44
2480.00,84.03
2477.50,84.47
2475.00,84.81
2472.50,85.07
2470.00,85.27
2467.50,85.43
2465.00,85.56
2462.50,85.67
2460.00,85.76
2457.50,85.84
2455.00,85.92
2452.50,85.98
2450.00,86.03
2447.50,86.07
2445.00,86.11
2442.50,86.14
2440.00,86.16
2437.50,86.16
2435.00,86.18
2432.50,86.19
2430.00,86.20
2427.50,86.21
2425.00,86.21
2422.50,86.21
2420.00,86.21
2417.50,86.19
2415.00,86.18
2412.50,86.16
2410.00,86.14
2407.50,86.13
2405.00,86.11
2402.50,86.10
2400.00,86.09
2397.50,86.08
2395.00,86.06
2392.50,86.05
2390.00,86.02
2387.50,85.99
2385.00,85.96
2382.50,85.92
2380.00,85.85
2377.50,85.80
2375.00,85.75
2372.50,85.74
2370.00,85.73
2367.50,85.68
2365.00,85.64
2362.50,85.61
2360.00,85.57
2357.50,85.52
2355.00,85.43
2352.50,85.36
2350.00,85.33
2347.50,85.24
2345.00,85.22
2342.50,85.17
2340.00,85.01
2337.50,84.94
2335.00,84.94
2332.50,84.92
2330.00,84.87
2327.50,84.82
2325.00,84.73
2322.50,84.66
2320.00,84.56
2317.50,84.47
2315.00,84.35
2312.50,84.24
2310.00,84.14
2307.50,84.01
2305.00,83.87
2302.50,83.74
2300.00,83.59
2297.50,83.42
2295.00,83.23
2292.50,83.02
2290.00,82.80
2287.50,82.57
2285.00,82.32
2282.50,82.07
2280.00,81.83
2277.50,81.61
2275.00,81.42
2272.50,81.28
2270.00,81.19
2267.50,81.10
2265.00,81.01
2262.50,80.90
2260.00,80.77
2257.50,80.63
2255.00,80.46
2252.50,80.27
2250.00,80.05
2247.50,79.80
2245.00,79.52
2242.50,79.21
2240.00,78.86
2237.50,78.46
2235.00,78.00
2232.50,77.48
2230.00,76.89
2227.50,76.23
2225.00,75.51
2222.50,74.72
2220.00,73.88
2217.50,72.96
2215.00,71.94
2212.50,70.77
2210.00,69.45
2207.50,67.92
2205.00,66.17
2202.50,64.17
2200.00,61.89
2197.50,59.30
2195.00,56.37
2192.50,53.09
2190.00,49.47
2187.50,45.54
2185.00,41.35
2182.50,37.03
2180.00,32.76
2177.50,28.73
2175.00,25.14
2172.50,22.15
2170.00,19.80
2167.50,18.11
2165.00,17.06
2162.50,16.67
2160.00,16.96
2157.50,17.90
2155.00,19.49
2152.50,21.75
2150.00,24.69
2147.50,28.22
2145.00,32.21
2142.50,36.50
2140.00,40.89
2137.50,45.21
2135.00,49.30
2132.50,53.00
2130.00,56.25
2127.50,59.01
2125.00,61.30
2122.50,63.23
2120.00,64.83
2117.50,66.15
2115.00,67.23
2112.50,68.10
2110.00,68.83
2107.50,69.44
2105.00,69.98
2102.50,70.48
2100.00,70.91
2097.50,71.28
2095.00,71.57
2092.50,71.78
2090.00,71.89
2087.50,71.90
2085.00,71.87
2082.50,71.80
2080.00,71.71
2077.50,71.57
2075.00,71.37
2072.50,71.09
2070.00,70.75
2067.50,70.30
2065.00,69.87
2062.50,69.39
2060.00,68.88
2057.50,68.37
2055.00,67.93
2052.50,67.70
2050.00,67.85
2047.50,68.52
2045.00,69.72
2042.50,71.21
2040.00,72.73
2037.50,73.96
2035.00,74.81
2032.50,75.27
2030.00,75.42
2027.50,75.30
2025.00,74.97
2022.50,74.48
2020.00,73.88
2017.50,73.16
2015.00,72.35
2012.50,71.46
2010.00,70.63
2007.50,69.96
2005.00,69.47
2002.50,68.99
2000.00,68.55
1997.50,68.29
1995.00,68.30
1992.50,68.45
1990.00,68.36
1987.50,67.95
1985.00,67.30
1982.50,66.42
1980.00,65.31
1977.50,63.98
1975.00,62.43
1972.50,60.71
1970.00,58.93
1967.50,57.18
1965.00,55.66
1962.50,54.35
1960.00,53.15
1957.50,51.97
1955.00,50.68
1952.50,49.25
1950.00,47.77
1947.50,46.47
1945.00,45.70
1942.50,45.89
1940.00,47.19
1937.50,49.31
1935.00,51.66
1932.50,53.73
1930.00,55.28
1927.50,56.36
1925.00,57.12
1922.50,57.77
1920.00,58.29
1917.50,59.05
1915.00,59.93
1912.50,61.09
1910.00,62.20
1907.50,63.15
1905.00,63.91
1902.50,64.50
1900.00,64.88
1897.50,65.09
1895.00,65.15
1892.50,65.14
1890.00,65.06
1887.50,65.01
1885.00,64.91
1882.50,64.81
1880.00,64.70
1877.50,64.59
1875.00,64.49
1872.50,64.40
1870.00,64.33
1867.50,64.37
1865.00,64.35
1862.50,64.35
1860.00,64.30
1857.50,64.18
1855.00,64.01
1852.50,63.93
1850.00,63.95
1847.50,64.06
1845.00,64.23
1842.50,64.35
1840.00,64.39
1837.50,64.34
1835.00,64.22
1832.50,64.03
1830.00,63.83
1827.50,63.50
1825.00,63.08
1822.50,62.68
1820.00,62.20
1817.50,61.67
1815.00,61.12
1812.50,60.52
1810.00,59.88
1807.50,59.21
1805.00,58.54
1802.50,57.79
1800.00,57.12
1797.50,56.45
1795.00,55.78
1792.50,55.21
1790.00,54.60
1787.50,54.12
1785.00,53.71
1782.50,53.38
1780.00,53.16
1777.50,53.02
1775.00,52.95
1772.50,53.07
1770.00,53.03
1767.50,53.12
1765.00,53.22
1762.50,53.33
1760.00,53.47
1757.50,53.55
1755.00,53.68
1752.50,53.69
1750.00,53.78
1747.50,53.79
1745.00,53.68
1742.50,53.55
1740.00,53.43
1737.50,53.10
1735.00,52.88
1732.50,52.38
1730.00,51.97
1727.50,51.66
1725.00,51.33
1722.50,51.09
1720.00,50.88
1717.50,50.76
1715.00,50.66
1712.50,50.53
1710.00,50.43
1707.50,50.32
1705.00,50.17
1702.50,50.00
1700.00,49.85
1697.50,49.55
1695.00,49.21
1692.50,48.90
1690.00,48.49
1687.50,48.05
1685.00,47.58
1682.50,47.22
1680.00,46.93
1677.50,46.67
1675.00,46.26
1672.50,45.79
1670.00,45.31
1667.50,44.55
1665.00,43.99
1662.50,43.37
1660.00,42.78
1657.50,42.19
1655.00,41.71
1652.50,40.86
1650.00,40.64
1647.50,40.21
1645.00,39.69
1642.50,39.32
1640.00,38.93
1637.50,38.56
1635.00,38.01
1632.50,37.68
1630.00,37.25
1627.50,36.76
1625.00,36.35
1622.50,35.83
1620.00,35.41
1617.50,35.05
1615.00,34.64
1612.50,34.42
1610.00,34.26
1607.50,34.08
1605.00,33.80
1602.50,33.12
1600.00,31.17
1597.50,28.36
1595.00,30.37
1592.50,33.74
1590.00,35.38
1587.50,36.41
1585.00,37.28
1582.50,38.07
1580.00,38.79
1577.50,39.34
1575.00,40.19
1572.50,40.64
1570.00,41.20
1567.50,41.69
1565.00,42.05
1562.50,42.33
1560.00,42.52
1557.50,42.86
1555.00,42.87
1552.50,42.95
1550.00,42.89
1547.50,42.92
1545.00,42.85
1542.50,42.84
1540.00,42.77
1537.50,42.49
1535.00,42.34
1532.50,42.20
1530.00,42.11
1527.50,42.04
1525.00,42.10
1522.50,42.12
1520.00,42.14
1517.50,42.05
1515.00,42.14
1512.50,42.15
1510.00,42.04
1507.50,42.01
1505.00,42.08
1502.50,41.99
1500.00,41.87
1497.50,41.54
1495.00,40.89
1492.50,40.05
1490.00,38.72
1487.50,37.52
1485.00,36.41
1482.50,35.70
1480.00,35.33
1477.50,35.08
1475.00,34.73
1472.50,34.00
1470.00,32.52
1467.50,30.45
1465.00,27.99
1462.50,25.13
1460.00,22.34
1457.50,19.58
1455.00,16.98
1452.50,14.74
1450.00,12.32
1447.50,10.51
1445.00,10.14
1442.50,11.01
1440.00,12.71
1437.50,14.27
1435.00,15.62
1432.50,15.65
1430.00,14.53
1427.50,12.32
1425.00,9.44
1422.50,5.91
1420.00,3.62
1417.50,1.77
1415.00,1.13
1412.50,0.93
1410.00,0.96
1407.50,1.17
1405.00,1.56
1402.50,1.96
1400.00,2.44
1397.50,3.73
1395.00,6.09
1392.50,9.35
1390.00,12.64
1387.50,15.42
1385.00,17.53
1382.50,19.37
1380.00,21.03
1377.50,22.24
1375.00,22.85
1372.50,23.20
1370.00,24.09
1367.50,25.24
1365.00,25.91
1362.50,26.41
1360.00,26.81
1357.50,27.11
1355.00,27.30
1352.50,27.34
1350.00,27.25
1347.50,27.06
1345.00,26.90
1342.50,26.83
1340.00,26.79
1337.50,26.68
1335.00,26.36
1332.50,25.77
1330.00,24.99
1327.50,24.02
1325.00,22.89
1322.50,21.64
1320.00,20.31
1317.50,18.90
1315.00,17.47
1312.50,15.97
1310.00,14.53
1307.50,13.10
1305.00,11.70
1302.50,10.32
1300.00,8.92
1297.50,7.51
1295.00,6.10
1292.50,4.78
1290.00,3.58
1287.50,2.53
1285.00,1.62
1282.50,0.89
1280.00,0.39
1277.50,0.11
1275.00,0.01
1272.50,0.01
1270.00,0.00
1267.50,0.01
1265.00,0.00
1262.50,0.00
1260.00,0.01
1257.50,0.00
1255.00,0.01
1252.50,0.00
1250.00,0.00
1247.50,0.00
1245.00,0.01
1242.50,0.06
1240.00,0.20
1237.50,0.39
1235.00,0.54
1232.50,0.64
1230.00,0.66
1227.50,0.59
1225.00,0.47
1222.50,0.34
1220.00,0.23
1217.50,0.15
1215.00,0.08
1212.50,0.04
1210.00,0.02
1207.50,0.02
1205.00,0.01
1202.50,0.01
1200.00,0.00
1197.50,0.00
1195.00,0.00
1192.50,0.00
1190.00,0.01
1187.50,0.01
1185.00,0.01
1182.50,0.00
1180.00,0.01
1177.50,0.02
1175.00,0.01
1172.50,0.00
1170.00,0.01
1167.50,0.00
1165.00,0.00
1162.50,0.01
1160.00,0.00
1157.50,0.01
1155.00,0.00
1152.50,0.00
1150.00,0.01
1147.50,0.01
1145.00,0.01
1142.50,0.01
1140.00,0.00
1137.50,0.00
1135.00,0.01
1132.50,0.01
1130.00,0.01
1127.50,0.00
1125.00,0.00
1122.50,0.01
1120.00,0.00
1117.50,0.00
1115.00,0.01
1112.50,0.01
1110.00,0.00
1107.50,0.01
1105.00,0.00
1102.50,0.01
1100.00,0.01
1097.50,0.00
1095.00,0.01
1092.50,0.01
1090.00,0.01
1087.50,0.00
1085.00,0.00
1082.50,0.01
1080.00,0.00
1077.50,0.01
1075.00,0.01
1072.50,0.01
1070.00,0.01
1067.50,0.00
1065.00,0.00
1062.50,0.00
1060.00,0.01
1057.50,0.01
1055.00,0.01
1052.50,0.01
1050.00,0.01
1047.50,0.01
1045.00,0.01
1042.50,0.01
1040.00,0.00
1037.50,0.02
1035.00,0.01
1032.50,0.01
1030.00,0.00
1027.50,0.01
1025.00,0.01
1022.50,0.01
1020.00,0.01
1017.50,0.00
1015.00,0.01
1012.50,0.01
1010.00,0.00
1007.50,0.00
1005.00,0.01
1002.50,0.01
1000.00,0.01
997.50,0.00
995.00,0.01
992.50,0.01
990.00,0.01
987.50,0.04
985.00,0.08
982.50,0.18
980.00,0.33
977.50,0.55
975.00,0.81
972.50,1.11
970.00,1.45
967.50,1.77
965.00,2.04
962.50,2.24
960.00,2.38
957.50,2.55
955.00,2.88
952.50,3.54
950.00,4.39
947.50,5.09
945.00,5.54
942.50,5.77
940.00,5.81
937.50,5.63
935.00,5.20
932.50,4.53
930.00,3.71
927.50,2.95
925.00,2.35
922.50,1.73
920.00,1.06
917.50,0.59
915.00,0.37
912.50,0.29
910.00,0.31
907.50,0.39
905.00,0.44
902.50,0.41
900.00,0.29
897.50,0.18
895.00,0.09
892.50,0.05
890.00,0.02
887.50,0.01
885.00,0.01
882.50,0.01
880.00,0.00
877.50,0.00
875.00,0.00
872.50,0.01
870.00,0.01
867.50,0.01
865.00,0.01
862.50,0.01
860.00,0.01
857.50,0.01
855.00,0.00
852.50,0.01
850.00,0.01
847.50,0.00
845.00,0.00
842.50,0.01
840.00,0.00
837.50,0.01
835.00,0.01
832.50,0.01
830.00,0.02
827.50,0.01
825.00,0.02
822.50,0.02
820.00,0.01
817.50,0.00
815.00,0.01
812.50,0.02
810.00,0.00
807.50,0.01
805.00,0.01
802.50,0.01
800.00,0.01
797.50,0.00
795.00,0.01
792.50,0.01
790.00,0.01
787.50,0.01
785.00,0.01
782.50,0.01
780.00,0.01
777.50,0.01
775.00,0.01
772.50,0.02
770.00,0.01
767.50,0.02
765.00,0.00
762.50,0.01
760.00,0.01
757.50,0.00
755.00,0.00
752.50,0.01
750.00,0.13
747.50,0.40
745.00,0.78
742.50,1.15
740.00,1.50
737.50,1.87
735.00,2.17
732.50,2.41
730.00,2.53
727.50,2.57
725.00,2.51
722.50,2.41
720.00,2.17
717.50,1.82
715.00,1.30
712.50,0.74
710.00,0.34
707.50,0.15
705.00,0.11
702.50,0.12
700.00,0.12
697.50,0.13
695.00,0.14
692.50,0.12
690.00,0.10
687.50,0.14
685.00,0.20
682.50,0.34
680.00,0.53
677.50,0.76
675.00,0.97
672.50,1.11
670.00,1.18
667.50,1.12
665.00,1.03
662.50,0.84
660.00,0.92
657.50,3.06
655.00,6.91
652.50,9.33
650.00,10.42
647.50,10.75
645.00,10.64
642.50,10.19
640.00,9.56
637.50,8.90
635.00,8.35
632.50,7.99
630.00,7.69
627.50,7.55
625.00,7.54
622.50,7.59
620.00,7.74
617.50,7.79
615.00,7.73
612.50,7.71
610.00,7.32
607.50,6.25
605.00,4.45
602.50,2.88
600.00,2.47
597.50,2.84
595.00,3.43
592.50,3.74
590.00,3.63
587.50,3.16
585.00,2.56
582.50,1.99
580.00,1.54
577.50,1.21
575.00,1.03
572.50,0.89
570.00,0.79
567.50,0.71
565.00,0.65
562.50,0.60
560.00,0.59
557.50,0.54
555.00,0.51
552.50,0.47
550.00,0.42
547.50,0.40
545.00,0.39
542.50,0.35
540.00,0.34
537.50,0.30
535.00,0.26
532.50,0.25
530.00,0.25
527.50,0.18
525.00,0.15
522.50,0.16
520.00,0.17
517.50,0.12
515.00,0.14
512.50,0.16
510.00,0.13
507.50,0.13
505.00,0.08
502.50,0.07
500.00,0.09
497.50,0.04
495.00,0.12
492.50,0.07
490.00,0.10
487.50,0.05
485.00,0.03
482.50,0.02
480.00,0.03
477.50,0.06
475.00,0.07
472.50,0.07
470.00,0.03
467.50,0.04
465.00,0.10
462.50,0.06
460.00,0.04
457.50,0.21
455.00,0.12
452.50,0.08
450.00,0.11
447.50,0.07
445.00,0.02
442.50,0.05
440.00,0.10
437.50,0.18
435.00,0.05
432.50,0.08
430.00,0.07
427.50,0.06
425.00,0.03
422.50,0.09
420.00,0.24
417.50,0.22
415.00,0.09
412.50,0.05
410.00,0.09
407.50,0.28
405.00,0.22
402.50,0.07
400.00,0.11