File: CSVs/190606_AuNP_PDMS_1/05_AuPDMS_05min.csv
Created as New Dataset,Sample 162 By irlear Date Thursday, June 06 2019
cm-1,%T
4000.00,79.32
3997.50,79.43
3995.00,79.55
3992.50,79.65
3990.00,79.77
3987.50,79.87
3985.00,80.00
3982.50,80.09
3980.00,80.19
3977.50,80.30
3975.00,80.40
3972.50,80.50
3970.00,80.60
3967.50,80.69
3965.00,80.78
3962.50,80.89
3960.00,80.96
3957.50,81.03
3955.00,81.08
3952.50,81.12
3950.00,81.16
3947.50,81.22
3945.00,81.21
3942.50,81.27
3940.00,81.34
3937.50,81.38
3935.00,81.43
3932.50,81.47
3930.00,81.50
3927.50,81.46
3925.00,81.49
3922.50,81.47
3920.00,81.45
3917.50,81.45
3915.00,81.37
3912.50,81.30
3910.00,81.24
3907.50,81.12
3905.00,81.13
3902.50,81.03
3900.00,80.88
3897.50,80.82
3895.00,80.74
3892.50,80.69
3890.00,80.62
3887.50,80.51
3885.00,80.54
3882.50,80.42
3880.00,80.37
3877.50,80.36
3875.00,80.20
3872.50,80.17
3870.00,80.13
3867.50,79.91
3865.00,79.78
3862.50,79.50
3860.00,79.18
3857.50,78.77
3855.00,78.35
3852.50,77.84
3850.00,77.33
3847.50,76.70
3845.00,76.03
3842.50,75.30
3840.00,74.68
3837.50,74.06
3835.00,73.57
3832.50,73.12
3830.00,72.79
3827.50,72.48
3825.00,72.30
3822.50,72.01
3820.00,71.96
3817.50,71.66
3815.00,71.36
3812.50,71.03
3810.00,70.60
3807.50,70.17
3805.00,69.74
3802.50,69.29
3800.00,68.81
3797.50,68.28
3795.00,67.63
3792.50,66.87
3790.00,65.95
3787.50,64.94
3785.00,63.87
3782.50,62.85
3780.00,61.85
3777.50,60.98
3775.00,60.16
3772.50,59.44
3770.00,58.79
3767.50,58.31
3765.00,57.95
3762.50,57.75
3760.00,57.63
3757.50,57.64
3755.00,57.76
3752.50,58.00
3750.00,58.48
3747.50,58.90
3745.00,59.16
3742.50,59.97
3740.00,60.46
3737.50,60.68
3735.00,60.52
3732.50,60.21
3730.00,59.47
3727.50,58.57
3725.00,57.37
3722.50,56.25
3720.00,55.30
3717.50,54.31
3715.00,53.29
3712.50,52.08
3710.00,50.86
3707.50,49.81
3705.00,48.92
3702.50,48.25
3700.00,48.03
3697.50,48.16
3695.00,48.59
3692.50,49.08
3690.00,49.96
3687.50,50.72
3685.00,51.17
3682.50,51.52
3680.00,51.69
3677.50,51.68
3675.00,51.33
3672.50,51.08
3670.00,50.39
3667.50,49.75
3665.00,48.98
3662.50,48.15
3660.00,47.25
3657.50,46.35
3655.00,45.31
3652.50,44.64
3650.00,43.87
3647.50,43.28
3645.00,43.09
3642.50,42.96
3640.00,43.00
3637.50,43.23
3635.00,43.54
3632.50,43.97
3630.00,44.37
3627.50,44.77
3625.00,45.07
3622.50,45.25
3620.00,45.28
3617.50,45.22
3615.00,45.18
3612.50,44.93
3610.00,44.82
3607.50,44.46
3605.00,44.24
3602.50,43.94
3600.00,43.64
3597.50,43.30
3595.00,43.01
3592.50,42.84
3590.00,42.78
3587.50,42.62
3585.00,42.59
3582.50,42.87
3580.00,43.23
3577.50,43.52
3575.00,43.78
3572.50,44.01
3570.00,44.29
3567.50,44.48
3565.00,44.69
3562.50,44.93
3560.00,45.06
3557.50,45.19
3555.00,45.28
3552.50,45.32
3550.00,45.32
3547.50,45.34
3545.00,45.30
3542.50,45.23
3540.00,45.16
3537.50,45.15
3535.00,45.03
3532.50,45.01
3530.00,44.97
3527.50,44.94
3525.00,44.97
3522.50,44.90
3520.00,44.93
3517.50,44.96
3515.00,45.04
3512.50,45.09
3510.00,45.15
3507.50,45.19
3505.00,45.31
3502.50,45.35
3500.00,45.40
3497.50,45.50
3495.00,45.54
3492.50,45.61
3490.00,45.70
3487.50,45.79
3485.00,45.87
3482.50,45.98
3480.00,46.09
3477.50,46.17
3475.00,46.27
3472.50,46.37
3470.00,46.51
3467.50,46.62
3465.00,46.70
3462.50,46.81
3460.00,46.95
3457.50,47.06
3455.00,47.21
3452.50,47.36
3450.00,47.51
3447.50,47.69
3445.00,47.82
3442.50,47.96
3440.00,48.12
3437.50,48.29
3435.00,48.44
3432.50,48.57
3430.00,48.72
3427.50,48.84
3425.00,48.99
3422.50,49.14
3420.00,49.27
3417.50,49.41
3415.00,49.57
3412.50,49.72
3410.00,49.86
3407.50,49.99
3405.00,50.15
3402.50,50.33
3400.00,50.49
3397.50,50.63
3395.00,50.81
3392.50,50.99
3390.00,51.14
3387.50,51.30
3385.00,51.46
3382.50,51.62
3380.00,51.79
3377.50,51.94
3375.00,52.07
3372.50,52.24
3370.00,52.41
3367.50,52.57
3365.00,52.70
3362.50,52.86
3360.00,53.02
3357.50,53.17
3355.00,53.32
3352.50,53.51
3350.00,53.68
3347.50,53.84
3345.00,54.03
3342.50,54.24
3340.00,54.45
3337.50,54.66
3335.00,54.84
3332.50,55.05
3330.00,55.25
3327.50,55.47
3325.00,55.67
3322.50,55.85
3320.00,56.05
3317.50,56.25
3315.00,56.48
3312.50,56.69
3310.00,56.93
3307.50,57.13
3305.00,57.33
3302.50,57.50
3300.00,57.68
3297.50,57.87
3295.00,58.04
3292.50,58.20
3290.00,58.33
3287.50,58.46
3285.00,58.60
3282.50,58.72
3280.00,58.85
3277.50,58.97
3275.00,59.09
3272.50,59.19
3270.00,59.28
3267.50,59.37
3265.00,59.45
3262.50,59.53
3260.00,59.59
3257.50,59.67
3255.00,59.73
3252.50,59.76
3250.00,59.80
3247.50,59.85
3245.00,59.89
3242.50,59.91
3240.00,59.94
3237.50,59.96
3235.00,59.99
3232.50,60.00
3230.00,59.99
3227.50,59.99
3225.00,59.99
3222.50,60.01
3220.00,60.03
3217.50,60.04
3215.00,60.06
3212.50,60.04
3210.00,60.04
3207.50,60.01
3205.00,59.98
3202.50,59.93
3200.00,59.87
3197.50,59.79
3195.00,59.68
3192.50,59.52
3190.00,59.32
3187.50,59.11
3185.00,59.05
3182.50,59.16
3180.00,59.33
3177.50,59.43
3175.00,59.44
3172.50,59.39
3170.00,59.29
3167.50,59.15
3165.00,58.95
3162.50,58.73
3160.00,58.45
3157.50,58.14
3155.00,57.82
3152.50,57.44
3150.00,57.00
3147.50,56.54
3145.00,56.04
3142.50,55.49
3140.00,54.90
3137.50,54.21
3135.00,53.47
3132.50,52.70
3130.00,51.92
3127.50,51.12
3125.00,50.35
3122.50,49.66
3120.00,49.05
3117.50,48.51
3115.00,48.08
3112.50,47.73
3110.00,47.51
3107.50,47.35
3105.00,47.27
3102.50,47.25
3100.00,47.26
3097.50,47.22
3095.00,47.20
3092.50,47.16
3090.00,47.08
3087.50,46.93
3085.00,46.73
3082.50,46.47
3080.00,46.16
3077.50,45.77
3075.00,45.27
3072.50,44.69
3070.00,43.97
3067.50,43.07
3065.00,41.87
3062.50,40.33
3060.00,38.45
3057.50,36.53
3055.00,35.05
3052.50,34.74
3050.00,35.91
3047.50,37.98
3045.00,39.76
3042.50,40.83
3040.00,41.39
3037.50,41.65
3035.00,41.74
3032.50,41.59
3030.00,41.21
3027.50,40.59
3025.00,39.70
3022.50,38.44
3020.00,36.97
3017.50,35.50
3015.00,34.33
3012.50,33.41
3010.00,32.38
3007.50,30.96
3005.00,29.08
3002.50,26.76
3000.00,24.04
2997.50,20.97
2995.00,17.57
2992.50,13.97
2990.00,10.30
2987.50,6.84
2985.00,3.91
2982.50,1.79
2980.00,0.58
2977.50,0.08
2975.00,-0.00
2972.50,0.04
2970.00,0.08
2967.50,0.08
2965.00,0.07
2962.50,0.05
2960.00,0.08
2957.50,0.08
2955.00,0.07
2952.50,0.02
2950.00,0.06
2947.50,0.39
2945.00,1.17
2942.50,2.49
2940.00,4.29
2937.50,6.40
2935.00,8.59
2932.50,10.66
2930.00,12.46
2927.50,13.75
2925.00,14.44
2922.50,14.38
2920.00,13.51
2917.50,11.81
2915.00,9.36
2912.50,6.61
2910.00,4.25
2907.50,2.82
2905.00,2.38
2902.50,2.79
2900.00,4.14
2897.50,6.51
2895.00,9.75
2892.50,13.45
2890.00,17.17
2887.50,20.64
2885.00,23.78
2882.50,26.59
2880.00,29.10
2877.50,31.40
2875.00,33.56
2872.50,35.62
2870.00,37.54
2867.50,39.23
2865.00,40.63
2862.50,41.75
2860.00,42.60
2857.50,43.25
2855.00,43.75
2852.50,44.15
2850.00,44.48
2847.50,44.77
2845.00,45.05
2842.50,45.31
2840.00,45.61
2837.50,46.06
2835.00,46.63
2832.50,47.26
2830.00,47.81
2827.50,48.19
2825.00,48.34
2822.50,48.27
2820.00,48.01
2817.50,47.68
2815.00,47.36
2812.50,47.17
2810.00,47.12
2807.50,47.23
2805.00,47.42
2802.50,47.64
2800.00,47.92
2797.50,48.31
2795.00,48.99
2792.50,50.15
2790.00,51.95
2787.50,54.41
2785.00,57.24
2782.50,60.07
2780.00,62.68
2777.50,64.99
2775.00,66.98
2772.50,68.73
2770.00,70.25
2767.50,71.55
2765.00,72.68
2762.50,73.65
2760.00,74.47
2757.50,75.17
2755.00,75.78
2752.50,76.32
2750.00,76.79
2747.50,77.22
2745.00,77.65
2742.50,78.05
2740.00,78.41
2737.50,78.72
2735.00,79.01
2732.50,79.26
2730.00,79.46
2727.50,79.64
2725.00,79.75
2722.50,79.84
2720.00,79.88
2717.50,79.86
2715.00,79.81
2712.50,79.75
2710.00,79.70
2707.50,79.71
2705.00,79.79
2702.50,79.93
2700.00,80.09
2697.50,80.22
2695.00,80.32
2692.50,80.35
2690.00,80.31
2687.50,80.16
2685.00,79.91
2682.50,79.56
2680.00,79.07
2677.50,78.52
2675.00,77.88
2672.50,77.17
2670.00,76.46
2667.50,75.81
2665.00,75.34
2662.50,75.16
2660.00,75.29
2657.50,75.71
2655.00,76.40
2652.50,77.28
2650.00,78.27
2647.50,79.27
2645.00,80.21
2642.50,81.03
2640.00,81.73
2637.50,82.32
2635.00,82.81
2632.50,83.22
2630.00,83.56
2627.50,83.85
2625.00,84.11
2622.50,84.35
2620.00,84.55
2617.50,84.72
2615.00,84.88
2612.50,85.02
2610.00,85.14
2607.50,85.24
2605.00,85.33
2602.50,85.41
2600.00,85.49
2597.50,85.53
2595.00,85.58
2592.50,85.63
2590.00,85.69
2587.50,85.74
2585.00,85.80
2582.50,85.85
2580.00,85.89
2577.50,85.92
2575.00,85.94
2572.50,85.97
2570.00,85.99
2567.50,86.01
2565.00,86.01
2562.50,86.02
2560.00,86.02
2557.50,86.01
2555.00,86.01
2552.50,85.99
2550.00,85.98
2547.50,85.95
2545.00,85.92
2542.50,85.88
2540.00,85.84
2537.50,85.78
2535.00,85.70
2532.50,85.58
2530.00,85.44
2527.50,85.26
2525.00,85.05
2522.50,84.81
2520.00,84.52
2517.50,84.18
2515.00,83.71
2512.50,83.05
2510.00,82.09
2507.50,80.61
2505.00,78.53
2502.50,76.25
2500.00,74.92
2497.50,75.31
2495.00,76.79
2492.50,78.50
2490.00,80.10
2487.50,81.49
2485.00,82.61
2482.50,83.45
2480.00,84.06
2477.50,84.50
2475.00,84.84
2472.50,85.10
2470.00,85.30
2467.50,85.46
2465.00,85.59
2462.50,85.70
2460.00,85.79
2457.50,85.87
2455.00,85.95
2452.50,86.01
2450.00,86.06
2447.50,86.10
2445.00,86.13
2442.50,86.16
2440.00,86.18
2437.50,86.19
2435.00,86.21
2432.50,86.22
2430.00,86.23
2427.50,86.24
2425.00,86.23
2422.50,86.24
2420.00,86.24
2417.50,86.22
2415.00,86.21
2412.50,86.19
2410.00,86.17
2407.50,86.15
2405.00,86.14
2402.50,86.13
2400.00,86.12
2397.50,86.11
2395.00,86.09
2392.50,86.07
2390.00,86.05
2387.50,86.01
2385.00,85.96
2382.50,85.90
2380.00,85.84
2377.50,85.79
2375.00,85.74
2372.50,85.71
2370.00,85.69
2367.50,85.63
2365.00,85.59
2362.50,85.55
2360.00,85.52
2357.50,85.45
2355.00,85.40
2352.50,85.33
2350.00,85.27
2347.50,85.21
2345.00,85.16
2342.50,85.10
2340.00,84.97
2337.50,84.90
2335.00,84.92
2332.50,84.89
2330.00,84.84
2327.50,84.77
2325.00,84.68
2322.50,84.60
2320.00,84.51
2317.50,84.43
2315.00,84.32
2312.50,84.20
2310.00,84.09
2307.50,83.97
2305.00,83.84
2302.50,83.71
2300.00,83.57
2297.50,83.40
2295.00,83.22
2292.50,83.02
2290.00,82.81
2287.50,82.57
2285.00,82.32
2282.50,82.07
2280.00,81.83
2277.50,81.61
2275.00,81.42
2272.50,81.29
2270.00,81.19
2267.50,81.11
2265.00,81.01
2262.50,80.91
2260.00,80.78
2257.50,80.64
2255.00,80.47
2252.50,80.27
2250.00,80.05
2247.50,79.80
2245.00,79.51
2242.50,79.21
2240.00,78.86
2237.50,78.46
2235.00,78.00
2232.50,77.49
2230.00,76.90
2227.50,76.24
2225.00,75.51
2222.50,74.72
2220.00,73.88
2217.50,72.95
2215.00,71.92
2212.50,70.76
2210.00,69.43
2207.50,67.90
2205.00,66.15
2202.50,64.14
2200.00,61.86
2197.50,59.27
2195.00,56.32
2192.50,53.03
2190.00,49.41
2187.50,45.47
2185.00,41.27
2182.50,36.95
2180.00,32.68
2177.50,28.66
2175.00,25.07
2172.50,22.08
2170.00,19.74
2167.50,18.05
2165.00,17.00
2162.50,16.61
2160.00,16.90
2157.50,17.84
2155.00,19.42
2152.50,21.69
2150.00,24.63
2147.50,28.14
2145.00,32.13
2142.50,36.42
2140.00,40.82
2137.50,45.14
2135.00,49.23
2132.50,52.94
2130.00,56.21
2127.50,58.97
2125.00,61.27
2122.50,63.20
2120.00,64.80
2117.50,66.12
2115.00,67.19
2112.50,68.06
2110.00,68.79
2107.50,69.41
2105.00,69.96
2102.50,70.46
2100.00,70.89
2097.50,71.27
2095.00,71.56
2092.50,71.77
2090.00,71.87
2087.50,71.88
2085.00,71.83
2082.50,71.76
2080.00,71.66
2077.50,71.53
2075.00,71.33
2072.50,71.06
2070.00,70.73
2067.50,70.29
2065.00,69.85
2062.50,69.36
2060.00,68.84
2057.50,68.32
2055.00,67.88
2052.50,67.64
2050.00,67.78
2047.50,68.45
2045.00,69.65
2042.50,71.16
2040.00,72.70
2037.50,73.94
2035.00,74.80
2032.50,75.28
2030.00,75.42
2027.50,75.29
2025.00,74.95
2022.50,74.45
2020.00,73.85
2017.50,73.13
2015.00,72.32
2012.50,71.43
2010.00,70.60
2007.50,69.94
2005.00,69.45
2002.50,68.97
2000.00,68.53
1997.50,68.25
1995.00,68.26
1992.50,68.41
1990.00,68.31
1987.50,67.90
1985.00,67.25
1982.50,66.37
1980.00,65.27
1977.50,63.95
1975.00,62.40
1972.50,60.68
1970.00,58.87
1967.50,57.13
1965.00,55.58
1962.50,54.26
1960.00,53.07
1957.50,51.88
1955.00,50.58
1952.50,49.15
1950.00,47.67
1947.50,46.38
1945.00,45.60
1942.50,45.79
1940.00,47.08
1937.50,49.22
1935.00,51.58
1932.50,53.65
1930.00,55.19
1927.50,56.28
1925.00,57.05
1922.50,57.70
1920.00,58.22
1917.50,58.99
1915.00,59.88
1912.50,61.06
1910.00,62.18
1907.50,63.12
1905.00,63.88
1902.50,64.46
1900.00,64.84
1897.50,65.02
1895.00,65.09
1892.50,65.07
1890.00,65.01
1887.50,64.95
1885.00,64.86
1882.50,64.77
1880.00,64.67
1877.50,64.56
1875.00,64.45
1872.50,64.37
1870.00,64.29
1867.50,64.31
1865.00,64.28
1862.50,64.28
1860.00,64.24
1857.50,64.11
1855.00,63.97
1852.50,63.88
1850.00,63.91
1847.50,64.04
1845.00,64.21
1842.50,64.32
1840.00,64.34
1837.50,64.29
1835.00,64.16
1832.50,63.97
1830.00,63.77
1827.50,63.44
1825.00,63.04
1822.50,62.64
1820.00,62.17
1817.50,61.64
1815.00,61.09
1812.50,60.48
1810.00,59.83
1807.50,59.15
1805.00,58.46
1802.50,57.72
1800.00,57.05
1797.50,56.38
1795.00,55.71
1792.50,55.16
1790.00,54.55
1787.50,54.07
1785.00,53.66
1782.50,53.33
1780.00,53.09
1777.50,52.95
1775.00,52.88
1772.50,52.99
1770.00,52.95
1767.50,53.05
1765.00,53.15
1762.50,53.28
1760.00,53.41
1757.50,53.50
1755.00,53.63
1752.50,53.65
1750.00,53.72
1747.50,53.73
1745.00,53.62
1742.50,53.48
1740.00,53.35
1737.50,53.02
1735.00,52.80
1732.50,52.32
1730.00,51.92
1727.50,51.60
1725.00,51.28
1722.50,51.03
1720.00,50.82
1717.50,50.69
1715.00,50.60
1712.50,50.45
1710.00,50.35
1707.50,50.24
1705.00,50.10
1702.50,49.94
1700.00,49.79
1697.50,49.50
1695.00,49.15
1692.50,48.85
1690.00,48.44
1687.50,47.99
1685.00,47.50
1682.50,47.15
1680.00,46.86
1677.50,46.60
1675.00,46.19
1672.50,45.72
1670.00,45.24
1667.50,44.50
1665.00,43.94
1662.50,43.31
1660.00,42.71
1657.50,42.12
1655.00,41.64
1652.50,40.76
1650.00,40.56
1647.50,40.14
1645.00,39.61
1642.50,39.25
1640.00,38.87
1637.50,38.51
1635.00,37.94
1632.50,37.62
1630.00,37.18
1627.50,36.69
1625.00,36.27
1622.50,35.76
1620.00,35.34
1617.50,34.96
1615.00,34.57
1612.50,34.35
1610.00,34.19
1607.50,34.01
1605.00,33.73
1602.50,33.05
1600.00,31.08
1597.50,28.27
1595.00,30.28
1592.50,33.65
1590.00,35.29
1587.50,36.33
1585.00,37.20
1582.50,37.99
1580.00,38.71
1577.50,39.26
1575.00,40.11
1572.50,40.56
1570.00,41.13
1567.50,41.62
1565.00,41.96
1562.50,42.25
1560.00,42.48
1557.50,42.78
1555.00,42.80
1552.50,42.88
1550.00,42.84
1547.50,42.85
1545.00,42.79
1542.50,42.76
1540.00,42.68
1537.50,42.42
1535.00,42.28
1532.50,42.13
1530.00,42.04
1527.50,41.97
1525.00,42.04
1522.50,42.06
1520.00,42.08
1517.50,41.99
1515.00,42.08
1512.50,42.09
1510.00,42.00
1507.50,41.93
1505.00,42.01
1502.50,41.93
1500.00,41.80
1497.50,41.47
1495.00,40.82
1492.50,39.98
1490.00,38.65
1487.50,37.44
1485.00,36.31
1482.50,35.62
1480.00,35.24
1477.50,34.99
1475.00,34.65
1472.50,33.92
1470.00,32.43
1467.50,30.37
1465.00,27.89
1462.50,25.04
1460.00,22.24
1457.50,19.48
1455.00,16.87
1452.50,14.65
1450.00,12.23
1447.50,10.41
1445.00,10.03
1442.50,10.91
1440.00,12.61
1437.50,14.18
1435.00,15.55
1432.50,15.58
1430.00,14.47
1427.50,12.25
1425.00,9.38
1422.50,5.85
1420.00,3.58
1417.50,1.74
1415.00,1.11
1412.50,0.92
1410.00,0.94
1407.50,1.15
1405.00,1.54
1402.50,1.94
1400.00,2.41
1397.50,3.68
1395.00,6.04
1392.50,9.28
1390.00,12.57
1387.50,15.36
1385.00,17.46
1382.50,19.29
1380.00,20.95
1377.50,22.16
1375.00,22.76
1372.50,23.12
1370.00,24.01
1367.50,25.17
1365.00,25.84
1362.50,26.35
1360.00,26.73
1357.50,27.03
1355.00,27.22
1352.50,27.27
1350.00,27.18
1347.50,27.00
1345.00,26.82
1342.50,26.76
1340.00,26.73
1337.50,26.62
1335.00,26.29
1332.50,25.71
1330.00,24.92
1327.50,23.95
1325.00,22.83
1322.50,21.58
1320.00,20.26
1317.50,18.85
1315.00,17.40
1312.50,15.91
1310.00,14.48
1307.50,13.05
1305.00,11.66
1302.50,10.28
1300.00,8.88
1297.50,7.47
1295.00,6.07
1292.50,4.75
1290.00,3.56
1287.50,2.51
1285.00,1.61
1282.50,0.89
1280.00,0.38
1277.50,0.11
1275.00,0.02
1272.50,0.00
1270.00,0.01
1267.50,0.00
1265.00,0.00
1262.50,0.00
1260.00,0.00
1257.50,0.01
1255.00,0.00
1252.50,0.00
1250.00,0.00
1247.50,0.01
1245.00,0.01
1242.50,0.06
1240.00,0.20
1237.50,0.38
1235.00,0.54
1232.50,0.63
1230.00,0.66
1227.50,0.59
1225.00,0.46
1222.50,0.34
1220.00,0.23
1217.50,0.14
1215.00,0.08
1212.50,0.03
1210.00,0.03
1207.50,0.02
1205.00,0.00
1202.50,0.00
1200.00,0.01
1197.50,0.01
1195.00,0.01
1192.50,0.00
1190.00,0.00
1187.50,0.00
1185.00,0.00
1182.50,0.00
1180.00,0.00
1177.50,0.00
1175.00,0.01
1172.50,0.00
1170.00,0.00
1167.50,0.01
1165.00,0.01
1162.50,0.01
1160.00,0.00
1157.50,0.00
1155.00,0.01
1152.50,0.01
1150.00,0.01
1147.50,0.00
1145.00,0.01
1142.50,0.00
1140.00,0.01
1137.50,0.00
1135.00,0.01
1132.50,0.01
1130.00,0.01
1127.50,0.00
1125.00,0.00
1122.50,0.01
1120.00,0.00
1117.50,0.00
1115.00,0.01
1112.50,0.00
1110.00,0.00
1107.50,0.00
1105.00,0.01
1102.50,0.01
1100.00,0.00
1097.50,0.01
1095.00,0.01
1092.50,0.01
1090.00,0.01
1087.50,0.01
1085.00,0.01
1082.50,0.01
1080.00,0.00
1077.50,0.00
1075.00,0.01
1072.50,0.01
1070.00,0.00
1067.50,0.01
1065.00,0.00
1062.50,0.02
1060.00,0.01
1057.50,0.01
1055.00,0.00
1052.50,0.01
1050.00,0.01
1047.50,0.01
1045.00,0.01
1042.50,0.01
1040.00,0.00
1037.50,0.00
1035.00,0.01
1032.50,0.01
1030.00,0.00
1027.50,0.00
1025.00,0.01
1022.50,0.00
1020.00,0.01
1017.50,0.01
1015.00,0.01
1012.50,0.00
1010.00,0.00
1007.50,0.01
1005.00,0.01
1002.50,0.00
1000.00,0.00
997.50,0.00
995.00,0.00
992.50,0.00
990.00,0.01
987.50,0.02
985.00,0.08
982.50,0.18
980.00,0.32
977.50,0.53
975.00,0.80
972.50,1.10
970.00,1.44
967.50,1.76
965.00,2.03
962.50,2.22
960.00,2.36
957.50,2.53
955.00,2.86
952.50,3.52
950.00,4.38
947.50,5.07
945.00,5.51
942.50,5.74
940.00,5.78
937.50,5.60
935.00,5.17
932.50,4.50
930.00,3.68
927.50,2.93
925.00,2.33
922.50,1.71
920.00,1.05
917.50,0.59
915.00,0.36
912.50,0.29
910.00,0.30
907.50,0.39
905.00,0.43
902.50,0.40
900.00,0.29
897.50,0.17
895.00,0.09
892.50,0.04
890.00,0.03
887.50,0.01
885.00,0.01
882.50,0.01
880.00,0.00
877.50,0.00
875.00,0.01
872.50,0.01
870.00,0.02
867.50,0.00
865.00,0.01
862.50,0.01
860.00,0.00
857.50,0.01
855.00,0.01
852.50,0.01
850.00,0.00
847.50,0.01
845.00,0.01
842.50,0.01
840.00,0.01
837.50,0.01
835.00,0.01
832.50,0.02
830.00,0.01
827.50,0.01
825.00,0.02
822.50,0.02
820.00,0.01
817.50,0.01
815.00,0.01
812.50,0.02
810.00,0.01
807.50,0.01
805.00,0.01
802.50,0.02
800.00,0.01
797.50,0.00
795.00,0.01
792.50,0.01
790.00,0.01
787.50,0.00
785.00,0.01
782.50,0.02
780.00,0.02
777.50,0.00
775.00,0.01
772.50,0.01
770.00,0.00
767.50,0.01
765.00,0.00
762.50,0.00
760.00,0.01
757.50,0.01
755.00,0.01
752.50,0.03
750.00,0.13
747.50,0.40
745.00,0.78
742.50,1.12
740.00,1.49
737.50,1.87
735.00,2.17
732.50,2.40
730.00,2.51
727.50,2.55
725.00,2.51
722.50,2.39
720.00,2.16
717.50,1.82
715.00,1.29
712.50,0.74
710.00,0.33
707.50,0.17
705.00,0.12
702.50,0.11
700.00,0.11
697.50,0.13
695.00,0.14
692.50,0.13
690.00,0.12
687.50,0.14
685.00,0.19
682.50,0.34
680.00,0.54
677.50,0.78
675.00,0.93
672.50,1.12
670.00,1.16
667.50,1.11
665.00,1.02
662.50,0.82
660.00,0.90
657.50,3.03
655.00,6.89
652.50,9.29
650.00,10.37
647.50,10.71
645.00,10.56
642.50,10.15
640.00,9.52
637.50,8.87
635.00,8.30
632.50,7.89
630.00,7.64
627.50,7.50
625.00,7.49
622.50,7.55
620.00,7.69
617.50,7.75
615.00,7.67
612.50,7.66
610.00,7.28
607.50,6.22
605.00,4.40
602.50,2.82
600.00,2.44
597.50,2.83
595.00,3.43
592.50,3.73
590.00,3.62
587.50,3.16
585.00,2.54
582.50,1.96
580.00,1.53
577.50,1.21
575.00,1.02
572.50,0.91
570.00,0.75
567.50,0.70
565.00,0.63
562.50,0.61
560.00,0.58
557.50,0.54
555.00,0.50
552.50,0.45
550.00,0.41
547.50,0.38
545.00,0.36
542.50,0.35
540.00,0.32
537.50,0.34
535.00,0.27
532.50,0.25
530.00,0.23
527.50,0.21
525.00,0.17
522.50,0.19
520.00,0.13
517.50,0.09
515.00,0.19
512.50,0.16
510.00,0.14
507.50,0.07
505.00,0.13
502.50,0.08
500.00,0.06
497.50,0.09
495.00,0.04
492.50,0.08
490.00,0.08
487.50,0.08
485.00,0.03
482.50,0.13
480.00,0.09
477.50,0.03
475.00,0.05
472.50,0.01
470.00,0.11
467.50,0.03
465.00,0.06
462.50,0.06
460.00,0.09
457.50,0.06
455.00,0.13
452.50,0.07
450.00,0.06
447.50,0.08
445.00,0.15
442.50,0.11
440.00,0.02
437.50,0.06
435.00,0.01
432.50,0.15
430.00,0.06
427.50,0.08
425.00,0.02
422.50,0.03
420.00,0.32
417.50,0.35
415.00,0.17
412.50,0.18
410.00,0.27
407.50,0.23
405.00,0.22
402.50,0.49
400.00,0.37