File: CSVs/190606_AuNP_PDMS_1/06_AuPDMS_10min.csv
Created as New Dataset,Sample 163 By irlear Date Thursday, June 06 2019
cm-1,%T
4000.00,79.28
3997.50,79.39
3995.00,79.50
3992.50,79.61
3990.00,79.72
3987.50,79.83
3985.00,79.97
3982.50,80.05
3980.00,80.15
3977.50,80.27
3975.00,80.36
3972.50,80.47
3970.00,80.56
3967.50,80.66
3965.00,80.75
3962.50,80.85
3960.00,80.92
3957.50,80.99
3955.00,81.05
3952.50,81.09
3950.00,81.12
3947.50,81.18
3945.00,81.18
3942.50,81.24
3940.00,81.30
3937.50,81.36
3935.00,81.41
3932.50,81.44
3930.00,81.47
3927.50,81.43
3925.00,81.44
3922.50,81.44
3920.00,81.42
3917.50,81.42
3915.00,81.34
3912.50,81.28
3910.00,81.22
3907.50,81.09
3905.00,81.11
3902.50,81.00
3900.00,80.85
3897.50,80.80
3895.00,80.70
3892.50,80.66
3890.00,80.59
3887.50,80.49
3885.00,80.51
3882.50,80.38
3880.00,80.35
3877.50,80.33
3875.00,80.17
3872.50,80.14
3870.00,80.11
3867.50,79.88
3865.00,79.75
3862.50,79.47
3860.00,79.14
3857.50,78.73
3855.00,78.35
3852.50,77.80
3850.00,77.28
3847.50,76.66
3845.00,75.98
3842.50,75.25
3840.00,74.63
3837.50,73.99
3835.00,73.49
3832.50,73.05
3830.00,72.71
3827.50,72.41
3825.00,72.22
3822.50,71.94
3820.00,71.88
3817.50,71.60
3815.00,71.29
3812.50,70.96
3810.00,70.53
3807.50,70.12
3805.00,69.66
3802.50,69.22
3800.00,68.72
3797.50,68.20
3795.00,67.54
3792.50,66.79
3790.00,65.86
3787.50,64.84
3785.00,63.76
3782.50,62.73
3780.00,61.75
3777.50,60.86
3775.00,60.04
3772.50,59.31
3770.00,58.66
3767.50,58.16
3765.00,57.81
3762.50,57.62
3760.00,57.49
3757.50,57.51
3755.00,57.64
3752.50,57.88
3750.00,58.38
3747.50,58.79
3745.00,59.09
3742.50,59.87
3740.00,60.37
3737.50,60.60
3735.00,60.44
3732.50,60.13
3730.00,59.39
3727.50,58.50
3725.00,57.29
3722.50,56.16
3720.00,55.21
3717.50,54.22
3715.00,53.19
3712.50,52.01
3710.00,50.80
3707.50,49.72
3705.00,48.84
3702.50,48.16
3700.00,47.95
3697.50,48.08
3695.00,48.52
3692.50,49.03
3690.00,49.90
3687.50,50.66
3685.00,51.11
3682.50,51.48
3680.00,51.65
3677.50,51.64
3675.00,51.27
3672.50,51.03
3670.00,50.33
3667.50,49.70
3665.00,48.92
3662.50,48.07
3660.00,47.18
3657.50,46.28
3655.00,45.22
3652.50,44.55
3650.00,43.79
3647.50,43.18
3645.00,42.98
3642.50,42.86
3640.00,42.89
3637.50,43.12
3635.00,43.44
3632.50,43.88
3630.00,44.28
3627.50,44.68
3625.00,44.98
3622.50,45.17
3620.00,45.20
3617.50,45.13
3615.00,45.10
3612.50,44.85
3610.00,44.73
3607.50,44.36
3605.00,44.15
3602.50,43.85
3600.00,43.55
3597.50,43.21
3595.00,42.91
3592.50,42.75
3590.00,42.69
3587.50,42.52
3585.00,42.49
3582.50,42.78
3580.00,43.13
3577.50,43.43
3575.00,43.68
3572.50,43.91
3570.00,44.19
3567.50,44.37
3565.00,44.59
3562.50,44.85
3560.00,44.97
3557.50,45.11
3555.00,45.18
3552.50,45.22
3550.00,45.22
3547.50,45.24
3545.00,45.18
3542.50,45.13
3540.00,45.05
3537.50,45.04
3535.00,44.93
3532.50,44.90
3530.00,44.88
3527.50,44.84
3525.00,44.87
3522.50,44.80
3520.00,44.83
3517.50,44.85
3515.00,44.93
3512.50,44.98
3510.00,45.03
3507.50,45.09
3505.00,45.21
3502.50,45.26
3500.00,45.31
3497.50,45.41
3495.00,45.46
3492.50,45.53
3490.00,45.61
3487.50,45.71
3485.00,45.78
3482.50,45.89
3480.00,46.00
3477.50,46.08
3475.00,46.19
3472.50,46.30
3470.00,46.44
3467.50,46.56
3465.00,46.65
3462.50,46.76
3460.00,46.89
3457.50,46.99
3455.00,47.13
3452.50,47.27
3450.00,47.44
3447.50,47.61
3445.00,47.74
3442.50,47.90
3440.00,48.07
3437.50,48.25
3435.00,48.40
3432.50,48.53
3430.00,48.67
3427.50,48.79
3425.00,48.92
3422.50,49.08
3420.00,49.20
3417.50,49.34
3415.00,49.50
3412.50,49.65
3410.00,49.81
3407.50,49.95
3405.00,50.11
3402.50,50.29
3400.00,50.45
3397.50,50.59
3395.00,50.76
3392.50,50.92
3390.00,51.07
3387.50,51.22
3385.00,51.38
3382.50,51.55
3380.00,51.73
3377.50,51.88
3375.00,52.03
3372.50,52.19
3370.00,52.37
3367.50,52.52
3365.00,52.64
3362.50,52.78
3360.00,52.94
3357.50,53.08
3355.00,53.24
3352.50,53.43
3350.00,53.61
3347.50,53.77
3345.00,53.98
3342.50,54.18
3340.00,54.40
3337.50,54.60
3335.00,54.78
3332.50,54.98
3330.00,55.17
3327.50,55.38
3325.00,55.57
3322.50,55.75
3320.00,55.96
3317.50,56.17
3315.00,56.41
3312.50,56.63
3310.00,56.87
3307.50,57.07
3305.00,57.26
3302.50,57.43
3300.00,57.60
3297.50,57.78
3295.00,57.94
3292.50,58.10
3290.00,58.23
3287.50,58.37
3285.00,58.52
3282.50,58.65
3280.00,58.78
3277.50,58.91
3275.00,59.02
3272.50,59.12
3270.00,59.20
3267.50,59.27
3265.00,59.35
3262.50,59.42
3260.00,59.49
3257.50,59.56
3255.00,59.63
3252.50,59.68
3250.00,59.73
3247.50,59.78
3245.00,59.82
3242.50,59.83
3240.00,59.85
3237.50,59.87
3235.00,59.88
3232.50,59.88
3230.00,59.88
3227.50,59.88
3225.00,59.88
3222.50,59.91
3220.00,59.93
3217.50,59.95
3215.00,59.97
3212.50,59.96
3210.00,59.95
3207.50,59.91
3205.00,59.86
3202.50,59.81
3200.00,59.74
3197.50,59.66
3195.00,59.55
3192.50,59.40
3190.00,59.21
3187.50,59.00
3185.00,58.95
3182.50,59.05
3180.00,59.22
3177.50,59.31
3175.00,59.32
3172.50,59.26
3170.00,59.15
3167.50,59.01
3165.00,58.82
3162.50,58.59
3160.00,58.32
3157.50,58.02
3155.00,57.69
3152.50,57.32
3150.00,56.88
3147.50,56.42
3145.00,55.91
3142.50,55.35
3140.00,54.74
3137.50,54.05
3135.00,53.32
3132.50,52.55
3130.00,51.77
3127.50,50.98
3125.00,50.22
3122.50,49.54
3120.00,48.93
3117.50,48.40
3115.00,47.96
3112.50,47.61
3110.00,47.39
3107.50,47.24
3105.00,47.15
3102.50,47.14
3100.00,47.16
3097.50,47.13
3095.00,47.12
3092.50,47.09
3090.00,47.02
3087.50,46.88
3085.00,46.69
3082.50,46.43
3080.00,46.12
3077.50,45.73
3075.00,45.24
3072.50,44.66
3070.00,43.95
3067.50,43.05
3065.00,41.84
3062.50,40.30
3060.00,38.43
3057.50,36.49
3055.00,35.01
3052.50,34.68
3050.00,35.86
3047.50,37.93
3045.00,39.72
3042.50,40.80
3040.00,41.36
3037.50,41.62
3035.00,41.71
3032.50,41.56
3030.00,41.18
3027.50,40.56
3025.00,39.66
3022.50,38.39
3020.00,36.91
3017.50,35.43
3015.00,34.26
3012.50,33.34
3010.00,32.32
3007.50,30.91
3005.00,29.03
3002.50,26.70
3000.00,23.97
2997.50,20.91
2995.00,17.50
2992.50,13.91
2990.00,10.24
2987.50,6.80
2985.00,3.87
2982.50,1.77
2980.00,0.56
2977.50,0.08
2975.00,-0.01
2972.50,0.04
2970.00,0.07
2967.50,0.07
2965.00,0.07
2962.50,0.05
2960.00,0.08
2957.50,0.08
2955.00,0.07
2952.50,0.02
2950.00,0.06
2947.50,0.38
2945.00,1.15
2942.50,2.46
2940.00,4.24
2937.50,6.34
2935.00,8.53
2932.50,10.59
2930.00,12.38
2927.50,13.66
2925.00,14.35
2922.50,14.29
2920.00,13.42
2917.50,11.71
2915.00,9.27
2912.50,6.53
2910.00,4.19
2907.50,2.77
2905.00,2.33
2902.50,2.74
2900.00,4.07
2897.50,6.43
2895.00,9.66
2892.50,13.35
2890.00,17.06
2887.50,20.54
2885.00,23.67
2882.50,26.48
2880.00,28.99
2877.50,31.30
2875.00,33.47
2872.50,35.53
2870.00,37.46
2867.50,39.14
2865.00,40.56
2862.50,41.68
2860.00,42.53
2857.50,43.17
2855.00,43.67
2852.50,44.06
2850.00,44.38
2847.50,44.68
2845.00,44.96
2842.50,45.21
2840.00,45.51
2837.50,45.95
2835.00,46.53
2832.50,47.14
2830.00,47.70
2827.50,48.08
2825.00,48.23
2822.50,48.15
2820.00,47.90
2817.50,47.56
2815.00,47.25
2812.50,47.06
2810.00,47.01
2807.50,47.12
2805.00,47.30
2802.50,47.52
2800.00,47.79
2797.50,48.18
2795.00,48.85
2792.50,50.00
2790.00,51.81
2787.50,54.28
2785.00,57.12
2782.50,59.97
2780.00,62.61
2777.50,64.93
2775.00,66.93
2772.50,68.68
2770.00,70.20
2767.50,71.50
2765.00,72.63
2762.50,73.59
2760.00,74.43
2757.50,75.14
2755.00,75.75
2752.50,76.30
2750.00,76.77
2747.50,77.22
2745.00,77.64
2742.50,78.03
2740.00,78.38
2737.50,78.69
2735.00,78.97
2732.50,79.22
2730.00,79.43
2727.50,79.61
2725.00,79.74
2722.50,79.84
2720.00,79.87
2717.50,79.86
2715.00,79.81
2712.50,79.73
2710.00,79.67
2707.50,79.67
2705.00,79.74
2702.50,79.88
2700.00,80.05
2697.50,80.19
2695.00,80.29
2692.50,80.33
2690.00,80.29
2687.50,80.15
2685.00,79.90
2682.50,79.53
2680.00,79.04
2677.50,78.47
2675.00,77.81
2672.50,77.10
2670.00,76.38
2667.50,75.73
2665.00,75.26
2662.50,75.08
2660.00,75.21
2657.50,75.64
2655.00,76.33
2652.50,77.22
2650.00,78.22
2647.50,79.22
2645.00,80.16
2642.50,80.99
2640.00,81.69
2637.50,82.28
2635.00,82.79
2632.50,83.21
2630.00,83.56
2627.50,83.85
2625.00,84.11
2622.50,84.35
2620.00,84.55
2617.50,84.71
2615.00,84.87
2612.50,85.00
2610.00,85.12
2607.50,85.22
2605.00,85.32
2602.50,85.40
2600.00,85.48
2597.50,85.53
2595.00,85.59
2592.50,85.64
2590.00,85.70
2587.50,85.75
2585.00,85.79
2582.50,85.84
2580.00,85.87
2577.50,85.90
2575.00,85.93
2572.50,85.96
2570.00,85.98
2567.50,86.00
2565.00,86.01
2562.50,86.02
2560.00,86.03
2557.50,86.02
2555.00,86.00
2552.50,85.98
2550.00,85.96
2547.50,85.94
2545.00,85.90
2542.50,85.87
2540.00,85.83
2537.50,85.77
2535.00,85.69
2532.50,85.58
2530.00,85.44
2527.50,85.25
2525.00,85.04
2522.50,84.80
2520.00,84.50
2517.50,84.16
2515.00,83.69
2512.50,83.03
2510.00,82.06
2507.50,80.59
2505.00,78.50
2502.50,76.21
2500.00,74.85
2497.50,75.22
2495.00,76.72
2492.50,78.43
2490.00,80.03
2487.50,81.44
2485.00,82.57
2482.50,83.42
2480.00,84.03
2477.50,84.48
2475.00,84.83
2472.50,85.09
2470.00,85.30
2467.50,85.45
2465.00,85.58
2462.50,85.69
2460.00,85.78
2457.50,85.86
2455.00,85.93
2452.50,85.99
2450.00,86.05
2447.50,86.09
2445.00,86.13
2442.50,86.16
2440.00,86.18
2437.50,86.19
2435.00,86.20
2432.50,86.22
2430.00,86.22
2427.50,86.23
2425.00,86.22
2422.50,86.22
2420.00,86.22
2417.50,86.21
2415.00,86.20
2412.50,86.18
2410.00,86.16
2407.50,86.15
2405.00,86.13
2402.50,86.12
2400.00,86.11
2397.50,86.09
2395.00,86.08
2392.50,86.06
2390.00,86.03
2387.50,86.00
2385.00,85.97
2382.50,85.94
2380.00,85.87
2377.50,85.80
2375.00,85.76
2372.50,85.76
2370.00,85.74
2367.50,85.69
2365.00,85.64
2362.50,85.60
2360.00,85.58
2357.50,85.54
2355.00,85.44
2352.50,85.36
2350.00,85.33
2347.50,85.24
2345.00,85.21
2342.50,85.18
2340.00,85.00
2337.50,84.92
2335.00,84.93
2332.50,84.91
2330.00,84.87
2327.50,84.83
2325.00,84.74
2322.50,84.65
2320.00,84.57
2317.50,84.47
2315.00,84.36
2312.50,84.23
2310.00,84.13
2307.50,84.00
2305.00,83.87
2302.50,83.73
2300.00,83.58
2297.50,83.40
2295.00,83.22
2292.50,83.01
2290.00,82.79
2287.50,82.57
2285.00,82.31
2282.50,82.06
2280.00,81.81
2277.50,81.59
2275.00,81.40
2272.50,81.25
2270.00,81.15
2267.50,81.07
2265.00,80.97
2262.50,80.87
2260.00,80.76
2257.50,80.61
2255.00,80.45
2252.50,80.25
2250.00,80.03
2247.50,79.77
2245.00,79.48
2242.50,79.17
2240.00,78.82
2237.50,78.42
2235.00,77.96
2232.50,77.44
2230.00,76.85
2227.50,76.19
2225.00,75.47
2222.50,74.68
2220.00,73.84
2217.50,72.91
2215.00,71.87
2212.50,70.69
2210.00,69.36
2207.50,67.82
2205.00,66.06
2202.50,64.05
2200.00,61.76
2197.50,59.16
2195.00,56.21
2192.50,52.90
2190.00,49.26
2187.50,45.31
2185.00,41.10
2182.50,36.78
2180.00,32.51
2177.50,28.49
2175.00,24.92
2172.50,21.93
2170.00,19.60
2167.50,17.91
2165.00,16.88
2162.50,16.50
2160.00,16.78
2157.50,17.72
2155.00,19.30
2152.50,21.55
2150.00,24.48
2147.50,28.00
2145.00,31.98
2142.50,36.27
2140.00,40.67
2137.50,44.99
2135.00,49.09
2132.50,52.81
2130.00,56.08
2127.50,58.87
2125.00,61.18
2122.50,63.12
2120.00,64.73
2117.50,66.05
2115.00,67.12
2112.50,68.00
2110.00,68.71
2107.50,69.33
2105.00,69.88
2102.50,70.37
2100.00,70.81
2097.50,71.20
2095.00,71.50
2092.50,71.71
2090.00,71.81
2087.50,71.82
2085.00,71.77
2082.50,71.69
2080.00,71.58
2077.50,71.44
2075.00,71.24
2072.50,70.96
2070.00,70.63
2067.50,70.19
2065.00,69.77
2062.50,69.29
2060.00,68.77
2057.50,68.25
2055.00,67.80
2052.50,67.55
2050.00,67.68
2047.50,68.33
2045.00,69.53
2042.50,71.05
2040.00,72.61
2037.50,73.87
2035.00,74.75
2032.50,75.24
2030.00,75.40
2027.50,75.27
2025.00,74.92
2022.50,74.42
2020.00,73.80
2017.50,73.06
2015.00,72.23
2012.50,71.33
2010.00,70.49
2007.50,69.84
2005.00,69.35
2002.50,68.89
2000.00,68.45
1997.50,68.17
1995.00,68.19
1992.50,68.34
1990.00,68.24
1987.50,67.82
1985.00,67.16
1982.50,66.27
1980.00,65.16
1977.50,63.84
1975.00,62.29
1972.50,60.56
1970.00,58.77
1967.50,57.02
1965.00,55.47
1962.50,54.14
1960.00,52.94
1957.50,51.74
1955.00,50.43
1952.50,48.99
1950.00,47.50
1947.50,46.19
1945.00,45.41
1942.50,45.60
1940.00,46.90
1937.50,49.05
1935.00,51.43
1932.50,53.52
1930.00,55.07
1927.50,56.16
1925.00,56.91
1922.50,57.57
1920.00,58.09
1917.50,58.86
1915.00,59.75
1912.50,60.95
1910.00,62.08
1907.50,63.04
1905.00,63.81
1902.50,64.40
1900.00,64.78
1897.50,64.95
1895.00,65.00
1892.50,64.97
1890.00,64.89
1887.50,64.83
1885.00,64.74
1882.50,64.66
1880.00,64.57
1877.50,64.47
1875.00,64.37
1872.50,64.28
1870.00,64.22
1867.50,64.21
1865.00,64.19
1862.50,64.18
1860.00,64.12
1857.50,64.00
1855.00,63.84
1852.50,63.77
1850.00,63.80
1847.50,63.95
1845.00,64.14
1842.50,64.26
1840.00,64.28
1837.50,64.22
1835.00,64.09
1832.50,63.88
1830.00,63.67
1827.50,63.32
1825.00,62.91
1822.50,62.53
1820.00,62.06
1817.50,61.55
1815.00,61.00
1812.50,60.41
1810.00,59.75
1807.50,59.07
1805.00,58.35
1802.50,57.60
1800.00,56.92
1797.50,56.24
1795.00,55.57
1792.50,55.03
1790.00,54.42
1787.50,53.94
1785.00,53.55
1782.50,53.22
1780.00,52.99
1777.50,52.84
1775.00,52.77
1772.50,52.87
1770.00,52.82
1767.50,52.92
1765.00,53.00
1762.50,53.14
1760.00,53.28
1757.50,53.38
1755.00,53.51
1752.50,53.55
1750.00,53.63
1747.50,53.63
1745.00,53.51
1742.50,53.36
1740.00,53.22
1737.50,52.88
1735.00,52.66
1732.50,52.17
1730.00,51.77
1727.50,51.46
1725.00,51.15
1722.50,50.92
1720.00,50.72
1717.50,50.59
1715.00,50.49
1712.50,50.34
1710.00,50.22
1707.50,50.11
1705.00,49.95
1702.50,49.80
1700.00,49.68
1697.50,49.38
1695.00,49.05
1692.50,48.74
1690.00,48.34
1687.50,47.89
1685.00,47.41
1682.50,47.04
1680.00,46.74
1677.50,46.46
1675.00,46.07
1672.50,45.59
1670.00,45.12
1667.50,44.38
1665.00,43.83
1662.50,43.22
1660.00,42.61
1657.50,42.02
1655.00,41.55
1652.50,40.67
1650.00,40.44
1647.50,40.03
1645.00,39.50
1642.50,39.13
1640.00,38.76
1637.50,38.41
1635.00,37.86
1632.50,37.53
1630.00,37.09
1627.50,36.59
1625.00,36.17
1622.50,35.64
1620.00,35.22
1617.50,34.84
1615.00,34.45
1612.50,34.23
1610.00,34.07
1607.50,33.89
1605.00,33.61
1602.50,32.92
1600.00,30.96
1597.50,28.12
1595.00,30.14
1592.50,33.51
1590.00,35.16
1587.50,36.19
1585.00,37.06
1582.50,37.85
1580.00,38.58
1577.50,39.14
1575.00,39.99
1572.50,40.45
1570.00,41.01
1567.50,41.51
1565.00,41.85
1562.50,42.13
1560.00,42.36
1557.50,42.66
1555.00,42.67
1552.50,42.77
1550.00,42.73
1547.50,42.75
1545.00,42.69
1542.50,42.68
1540.00,42.59
1537.50,42.32
1535.00,42.17
1532.50,42.02
1530.00,41.92
1527.50,41.86
1525.00,41.92
1522.50,41.95
1520.00,41.98
1517.50,41.89
1515.00,41.97
1512.50,41.98
1510.00,41.89
1507.50,41.84
1505.00,41.91
1502.50,41.81
1500.00,41.69
1497.50,41.38
1495.00,40.73
1492.50,39.89
1490.00,38.56
1487.50,37.32
1485.00,36.19
1482.50,35.48
1480.00,35.09
1477.50,34.86
1475.00,34.52
1472.50,33.79
1470.00,32.30
1467.50,30.25
1465.00,27.76
1462.50,24.90
1460.00,22.09
1457.50,19.33
1455.00,16.72
1452.50,14.50
1450.00,12.07
1447.50,10.25
1445.00,9.88
1442.50,10.74
1440.00,12.46
1437.50,14.03
1435.00,15.42
1432.50,15.46
1430.00,14.35
1427.50,12.15
1425.00,9.28
1422.50,5.76
1420.00,3.51
1417.50,1.70
1415.00,1.09
1412.50,0.89
1410.00,0.91
1407.50,1.13
1405.00,1.50
1402.50,1.89
1400.00,2.36
1397.50,3.61
1395.00,5.94
1392.50,9.18
1390.00,12.47
1387.50,15.25
1385.00,17.35
1382.50,19.18
1380.00,20.85
1377.50,22.05
1375.00,22.65
1372.50,23.01
1370.00,23.90
1367.50,25.06
1365.00,25.73
1362.50,26.24
1360.00,26.62
1357.50,26.92
1355.00,27.12
1352.50,27.17
1350.00,27.08
1347.50,26.90
1345.00,26.72
1342.50,26.67
1340.00,26.63
1337.50,26.52
1335.00,26.20
1332.50,25.63
1330.00,24.84
1327.50,23.87
1325.00,22.74
1322.50,21.50
1320.00,20.17
1317.50,18.77
1315.00,17.33
1312.50,15.83
1310.00,14.41
1307.50,12.98
1305.00,11.60
1302.50,10.21
1300.00,8.83
1297.50,7.43
1295.00,6.03
1292.50,4.72
1290.00,3.54
1287.50,2.49
1285.00,1.60
1282.50,0.88
1280.00,0.38
1277.50,0.11
1275.00,0.01
1272.50,0.01
1270.00,0.00
1267.50,0.00
1265.00,0.00
1262.50,0.00
1260.00,0.00
1257.50,0.01
1255.00,0.00
1252.50,0.00
1250.00,0.01
1247.50,0.00
1245.00,0.00
1242.50,0.06
1240.00,0.19
1237.50,0.38
1235.00,0.54
1232.50,0.62
1230.00,0.64
1227.50,0.57
1225.00,0.46
1222.50,0.33
1220.00,0.23
1217.50,0.14
1215.00,0.08
1212.50,0.04
1210.00,0.03
1207.50,0.02
1205.00,0.01
1202.50,0.00
1200.00,0.01
1197.50,0.01
1195.00,0.00
1192.50,0.00
1190.00,0.01
1187.50,0.00
1185.00,0.00
1182.50,0.01
1180.00,0.01
1177.50,0.01
1175.00,0.01
1172.50,0.01
1170.00,0.00
1167.50,0.00
1165.00,0.00
1162.50,0.01
1160.00,0.01
1157.50,0.00
1155.00,0.00
1152.50,0.01
1150.00,0.00
1147.50,0.01
1145.00,0.01
1142.50,0.00
1140.00,0.00
1137.50,0.00
1135.00,0.01
1132.50,0.01
1130.00,0.00
1127.50,0.00
1125.00,0.01
1122.50,0.01
1120.00,0.01
1117.50,0.00
1115.00,0.01
1112.50,0.01
1110.00,0.00
1107.50,0.00
1105.00,0.01
1102.50,0.01
1100.00,0.01
1097.50,0.00
1095.00,0.01
1092.50,0.00
1090.00,0.01
1087.50,0.00
1085.00,0.01
1082.50,0.00
1080.00,0.01
1077.50,0.00
1075.00,0.01
1072.50,0.00
1070.00,0.00
1067.50,0.00
1065.00,0.01
1062.50,0.01
1060.00,0.00
1057.50,0.00
1055.00,0.00
1052.50,0.01
1050.00,0.00
1047.50,0.00
1045.00,0.00
1042.50,0.01
1040.00,0.00
1037.50,0.01
1035.00,0.01
1032.50,0.01
1030.00,0.01
1027.50,0.01
1025.00,0.01
1022.50,0.01
1020.00,0.01
1017.50,0.00
1015.00,0.00
1012.50,0.00
1010.00,0.00
1007.50,0.00
1005.00,0.00
1002.50,0.01
1000.00,0.00
997.50,0.01
995.00,0.01
992.50,0.00
990.00,0.01
987.50,0.03
985.00,0.08
982.50,0.17
980.00,0.32
977.50,0.53
975.00,0.80
972.50,1.11
970.00,1.43
967.50,1.75
965.00,2.01
962.50,2.21
960.00,2.35
957.50,2.50
955.00,2.83
952.50,3.50
950.00,4.34
947.50,5.03
945.00,5.49
942.50,5.72
940.00,5.75
937.50,5.58
935.00,5.15
932.50,4.47
930.00,3.65
927.50,2.90
925.00,2.30
922.50,1.69
920.00,1.04
917.50,0.57
915.00,0.35
912.50,0.28
910.00,0.29
907.50,0.37
905.00,0.43
902.50,0.39
900.00,0.29
897.50,0.18
895.00,0.09
892.50,0.04
890.00,0.01
887.50,0.01
885.00,0.00
882.50,0.01
880.00,0.00
877.50,0.01
875.00,0.01
872.50,0.01
870.00,0.01
867.50,0.00
865.00,0.01
862.50,0.00
860.00,0.01
857.50,0.00
855.00,0.01
852.50,0.01
850.00,0.02
847.50,0.00
845.00,0.01
842.50,0.01
840.00,0.02
837.50,0.01
835.00,0.01
832.50,0.01
830.00,0.02
827.50,0.01
825.00,0.01
822.50,0.00
820.00,0.01
817.50,0.01
815.00,0.01
812.50,0.01
810.00,0.01
807.50,0.01
805.00,0.02
802.50,0.01
800.00,0.01
797.50,0.01
795.00,0.01
792.50,0.02
790.00,0.01
787.50,0.01
785.00,0.00
782.50,0.01
780.00,0.01
777.50,0.01
775.00,0.01
772.50,0.00
770.00,0.01
767.50,0.01
765.00,0.01
762.50,0.00
760.00,0.00
757.50,0.01
755.00,0.00
752.50,0.01
750.00,0.11
747.50,0.40
745.00,0.77
742.50,1.12
740.00,1.48
737.50,1.83
735.00,2.16
732.50,2.38
730.00,2.49
727.50,2.53
725.00,2.49
722.50,2.37
720.00,2.15
717.50,1.78
715.00,1.27
712.50,0.72
710.00,0.33
707.50,0.17
705.00,0.11
702.50,0.09
700.00,0.11
697.50,0.13
695.00,0.12
692.50,0.11
690.00,0.11
687.50,0.13
685.00,0.20
682.50,0.33
680.00,0.51
677.50,0.74
675.00,0.93
672.50,1.06
670.00,1.12
667.50,1.11
665.00,0.99
662.50,0.79
660.00,0.87
657.50,3.03
655.00,6.87
652.50,9.27
650.00,10.35
647.50,10.66
645.00,10.50
642.50,10.09
640.00,9.46
637.50,8.78
635.00,8.24
632.50,7.85
630.00,7.57
627.50,7.43
625.00,7.40
622.50,7.48
620.00,7.61
617.50,7.69
615.00,7.65
612.50,7.58
610.00,7.23
607.50,6.18
605.00,4.37
602.50,2.79
600.00,2.44
597.50,2.80
595.00,3.39
592.50,3.69
590.00,3.59
587.50,3.12
585.00,2.52
582.50,1.93
580.00,1.48
577.50,1.19
575.00,0.98
572.50,0.86
570.00,0.76
567.50,0.68
565.00,0.66
562.50,0.61
560.00,0.56
557.50,0.49
555.00,0.45
552.50,0.43
550.00,0.40
547.50,0.37
545.00,0.37
542.50,0.34
540.00,0.31
537.50,0.27
535.00,0.27
532.50,0.28
530.00,0.25
527.50,0.19
525.00,0.15
522.50,0.15
520.00,0.19
517.50,0.11
515.00,0.10
512.50,0.11
510.00,0.14
507.50,0.11
505.00,0.12
502.50,0.11
500.00,0.05
497.50,0.08
495.00,0.10
492.50,0.08
490.00,0.04
487.50,0.07
485.00,0.04
482.50,0.03
480.00,0.04
477.50,0.04
475.00,0.08
472.50,0.06
470.00,0.05
467.50,0.02
465.00,0.05
462.50,0.05
460.00,0.06
457.50,0.12
455.00,0.05
452.50,0.06
450.00,0.07
447.50,0.06
445.00,0.06
442.50,0.06
440.00,0.04
437.50,0.10
435.00,0.05
432.50,0.14
430.00,0.01
427.50,0.04
425.00,0.03
422.50,0.21
420.00,0.52
417.50,0.39
415.00,0.04
412.50,0.05
410.00,0.07
407.50,0.14
405.00,0.36
402.50,0.29
400.00,0.28