File: CSVs/190606_AuNP_PDMS_1/laser-maybe_AuNP_240.csv
Created as New Dataset,Sample 161 By irlear Date Thursday, June 06 2019
cm-1,%T
4000.00,79.31
3997.50,79.42
3995.00,79.53
3992.50,79.63
3990.00,79.75
3987.50,79.86
3985.00,79.99
3982.50,80.07
3980.00,80.17
3977.50,80.28
3975.00,80.38
3972.50,80.49
3970.00,80.57
3967.50,80.68
3965.00,80.77
3962.50,80.86
3960.00,80.94
3957.50,81.01
3955.00,81.05
3952.50,81.09
3950.00,81.12
3947.50,81.18
3945.00,81.18
3942.50,81.24
3940.00,81.31
3937.50,81.37
3935.00,81.41
3932.50,81.44
3930.00,81.47
3927.50,81.44
3925.00,81.45
3922.50,81.44
3920.00,81.42
3917.50,81.41
3915.00,81.35
3912.50,81.29
3910.00,81.22
3907.50,81.10
3905.00,81.12
3902.50,81.01
3900.00,80.86
3897.50,80.81
3895.00,80.71
3892.50,80.67
3890.00,80.60
3887.50,80.49
3885.00,80.50
3882.50,80.39
3880.00,80.36
3877.50,80.33
3875.00,80.18
3872.50,80.14
3870.00,80.10
3867.50,79.89
3865.00,79.75
3862.50,79.48
3860.00,79.16
3857.50,78.74
3855.00,78.34
3852.50,77.82
3850.00,77.31
3847.50,76.69
3845.00,76.02
3842.50,75.29
3840.00,74.67
3837.50,74.03
3835.00,73.57
3832.50,73.12
3830.00,72.78
3827.50,72.48
3825.00,72.29
3822.50,72.02
3820.00,71.94
3817.50,71.65
3815.00,71.35
3812.50,71.02
3810.00,70.60
3807.50,70.19
3805.00,69.74
3802.50,69.28
3800.00,68.80
3797.50,68.28
3795.00,67.63
3792.50,66.88
3790.00,65.95
3787.50,64.94
3785.00,63.86
3782.50,62.85
3780.00,61.88
3777.50,61.00
3775.00,60.18
3772.50,59.45
3770.00,58.82
3767.50,58.32
3765.00,57.96
3762.50,57.76
3760.00,57.64
3757.50,57.65
3755.00,57.77
3752.50,58.00
3750.00,58.51
3747.50,58.91
3745.00,59.19
3742.50,59.98
3740.00,60.47
3737.50,60.68
3735.00,60.52
3732.50,60.22
3730.00,59.48
3727.50,58.58
3725.00,57.37
3722.50,56.26
3720.00,55.32
3717.50,54.32
3715.00,53.30
3712.50,52.10
3710.00,50.90
3707.50,49.82
3705.00,48.93
3702.50,48.27
3700.00,48.04
3697.50,48.17
3695.00,48.60
3692.50,49.11
3690.00,49.95
3687.50,50.72
3685.00,51.17
3682.50,51.53
3680.00,51.69
3677.50,51.68
3675.00,51.34
3672.50,51.08
3670.00,50.40
3667.50,49.75
3665.00,48.99
3662.50,48.15
3660.00,47.26
3657.50,46.36
3655.00,45.32
3652.50,44.66
3650.00,43.90
3647.50,43.28
3645.00,43.10
3642.50,42.98
3640.00,43.02
3637.50,43.24
3635.00,43.55
3632.50,43.99
3630.00,44.38
3627.50,44.77
3625.00,45.08
3622.50,45.25
3620.00,45.29
3617.50,45.23
3615.00,45.19
3612.50,44.94
3610.00,44.83
3607.50,44.46
3605.00,44.25
3602.50,43.95
3600.00,43.65
3597.50,43.30
3595.00,43.01
3592.50,42.85
3590.00,42.79
3587.50,42.62
3585.00,42.59
3582.50,42.88
3580.00,43.23
3577.50,43.53
3575.00,43.78
3572.50,44.02
3570.00,44.28
3567.50,44.46
3565.00,44.68
3562.50,44.94
3560.00,45.06
3557.50,45.20
3555.00,45.28
3552.50,45.32
3550.00,45.32
3547.50,45.34
3545.00,45.30
3542.50,45.23
3540.00,45.16
3537.50,45.14
3535.00,45.03
3532.50,45.00
3530.00,44.97
3527.50,44.94
3525.00,44.97
3522.50,44.91
3520.00,44.94
3517.50,44.97
3515.00,45.04
3512.50,45.09
3510.00,45.14
3507.50,45.19
3505.00,45.31
3502.50,45.34
3500.00,45.39
3497.50,45.50
3495.00,45.54
3492.50,45.61
3490.00,45.70
3487.50,45.79
3485.00,45.87
3482.50,45.98
3480.00,46.09
3477.50,46.16
3475.00,46.26
3472.50,46.36
3470.00,46.50
3467.50,46.61
3465.00,46.70
3462.50,46.81
3460.00,46.95
3457.50,47.06
3455.00,47.20
3452.50,47.35
3450.00,47.51
3447.50,47.67
3445.00,47.80
3442.50,47.95
3440.00,48.10
3437.50,48.28
3435.00,48.42
3432.50,48.56
3430.00,48.71
3427.50,48.84
3425.00,48.98
3422.50,49.13
3420.00,49.26
3417.50,49.39
3415.00,49.55
3412.50,49.69
3410.00,49.84
3407.50,49.97
3405.00,50.13
3402.50,50.31
3400.00,50.48
3397.50,50.63
3395.00,50.80
3392.50,50.98
3390.00,51.13
3387.50,51.28
3385.00,51.44
3382.50,51.60
3380.00,51.76
3377.50,51.92
3375.00,52.06
3372.50,52.22
3370.00,52.40
3367.50,52.56
3365.00,52.69
3362.50,52.85
3360.00,53.02
3357.50,53.16
3355.00,53.31
3352.50,53.50
3350.00,53.66
3347.50,53.82
3345.00,54.02
3342.50,54.23
3340.00,54.44
3337.50,54.66
3335.00,54.85
3332.50,55.05
3330.00,55.25
3327.50,55.46
3325.00,55.65
3322.50,55.84
3320.00,56.03
3317.50,56.24
3315.00,56.47
3312.50,56.68
3310.00,56.92
3307.50,57.12
3305.00,57.33
3302.50,57.50
3300.00,57.69
3297.50,57.88
3295.00,58.03
3292.50,58.19
3290.00,58.32
3287.50,58.45
3285.00,58.59
3282.50,58.71
3280.00,58.84
3277.50,58.96
3275.00,59.08
3272.50,59.19
3270.00,59.29
3267.50,59.37
3265.00,59.45
3262.50,59.52
3260.00,59.59
3257.50,59.65
3255.00,59.71
3252.50,59.75
3250.00,59.79
3247.50,59.85
3245.00,59.88
3242.50,59.91
3240.00,59.94
3237.50,59.97
3235.00,59.99
3232.50,60.00
3230.00,59.99
3227.50,59.99
3225.00,59.99
3222.50,60.00
3220.00,60.02
3217.50,60.03
3215.00,60.06
3212.50,60.05
3210.00,60.05
3207.50,60.03
3205.00,59.99
3202.50,59.94
3200.00,59.87
3197.50,59.79
3195.00,59.68
3192.50,59.52
3190.00,59.32
3187.50,59.12
3185.00,59.05
3182.50,59.17
3180.00,59.34
3177.50,59.44
3175.00,59.46
3172.50,59.41
3170.00,59.30
3167.50,59.16
3165.00,58.96
3162.50,58.73
3160.00,58.45
3157.50,58.15
3155.00,57.82
3152.50,57.45
3150.00,57.02
3147.50,56.56
3145.00,56.07
3142.50,55.51
3140.00,54.91
3137.50,54.22
3135.00,53.49
3132.50,52.72
3130.00,51.93
3127.50,51.13
3125.00,50.37
3122.50,49.68
3120.00,49.07
3117.50,48.54
3115.00,48.10
3112.50,47.76
3110.00,47.54
3107.50,47.38
3105.00,47.29
3102.50,47.26
3100.00,47.27
3097.50,47.23
3095.00,47.22
3092.50,47.17
3090.00,47.08
3087.50,46.94
3085.00,46.75
3082.50,46.49
3080.00,46.17
3077.50,45.77
3075.00,45.28
3072.50,44.69
3070.00,43.97
3067.50,43.08
3065.00,41.87
3062.50,40.33
3060.00,38.46
3057.50,36.53
3055.00,35.07
3052.50,34.75
3050.00,35.92
3047.50,37.99
3045.00,39.77
3042.50,40.84
3040.00,41.39
3037.50,41.65
3035.00,41.74
3032.50,41.59
3030.00,41.22
3027.50,40.60
3025.00,39.71
3022.50,38.45
3020.00,36.98
3017.50,35.52
3015.00,34.35
3012.50,33.42
3010.00,32.40
3007.50,30.98
3005.00,29.10
3002.50,26.77
3000.00,24.05
2997.50,20.99
2995.00,17.59
2992.50,13.99
2990.00,10.32
2987.50,6.85
2985.00,3.92
2982.50,1.80
2980.00,0.58
2977.50,0.08
2975.00,0.01
2972.50,0.05
2970.00,0.08
2967.50,0.08
2965.00,0.08
2962.50,0.06
2960.00,0.09
2957.50,0.09
2955.00,0.07
2952.50,0.02
2950.00,0.06
2947.50,0.39
2945.00,1.18
2942.50,2.50
2940.00,4.30
2937.50,6.41
2935.00,8.61
2932.50,10.69
2930.00,12.48
2927.50,13.77
2925.00,14.46
2922.50,14.40
2920.00,13.53
2917.50,11.83
2915.00,9.38
2912.50,6.62
2910.00,4.27
2907.50,2.83
2905.00,2.38
2902.50,2.81
2900.00,4.15
2897.50,6.53
2895.00,9.78
2892.50,13.48
2890.00,17.20
2887.50,20.67
2885.00,23.81
2882.50,26.62
2880.00,29.13
2877.50,31.43
2875.00,33.60
2872.50,35.65
2870.00,37.57
2867.50,39.25
2865.00,40.66
2862.50,41.77
2860.00,42.63
2857.50,43.27
2855.00,43.77
2852.50,44.17
2850.00,44.49
2847.50,44.79
2845.00,45.08
2842.50,45.33
2840.00,45.64
2837.50,46.08
2835.00,46.66
2832.50,47.28
2830.00,47.84
2827.50,48.22
2825.00,48.37
2822.50,48.29
2820.00,48.03
2817.50,47.70
2815.00,47.39
2812.50,47.20
2810.00,47.15
2807.50,47.25
2805.00,47.45
2802.50,47.67
2800.00,47.94
2797.50,48.34
2795.00,49.02
2792.50,50.17
2790.00,51.98
2787.50,54.44
2785.00,57.26
2782.50,60.08
2780.00,62.70
2777.50,65.00
2775.00,67.00
2772.50,68.74
2770.00,70.26
2767.50,71.56
2765.00,72.69
2762.50,73.65
2760.00,74.47
2757.50,75.17
2755.00,75.78
2752.50,76.32
2750.00,76.78
2747.50,77.22
2745.00,77.66
2742.50,78.05
2740.00,78.41
2737.50,78.73
2735.00,79.01
2732.50,79.25
2730.00,79.46
2727.50,79.63
2725.00,79.75
2722.50,79.84
2720.00,79.88
2717.50,79.86
2715.00,79.82
2712.50,79.75
2710.00,79.70
2707.50,79.71
2705.00,79.79
2702.50,79.93
2700.00,80.09
2697.50,80.22
2695.00,80.31
2692.50,80.34
2690.00,80.30
2687.50,80.16
2685.00,79.91
2682.50,79.56
2680.00,79.08
2677.50,78.52
2675.00,77.88
2672.50,77.17
2670.00,76.46
2667.50,75.82
2665.00,75.35
2662.50,75.17
2660.00,75.29
2657.50,75.72
2655.00,76.40
2652.50,77.28
2650.00,78.28
2647.50,79.28
2645.00,80.21
2642.50,81.03
2640.00,81.73
2637.50,82.32
2635.00,82.81
2632.50,83.21
2630.00,83.56
2627.50,83.85
2625.00,84.10
2622.50,84.34
2620.00,84.54
2617.50,84.71
2615.00,84.87
2612.50,85.01
2610.00,85.13
2607.50,85.23
2605.00,85.33
2602.50,85.41
2600.00,85.47
2597.50,85.52
2595.00,85.57
2592.50,85.62
2590.00,85.68
2587.50,85.74
2585.00,85.79
2582.50,85.85
2580.00,85.88
2577.50,85.91
2575.00,85.93
2572.50,85.96
2570.00,85.98
2567.50,85.99
2565.00,86.00
2562.50,86.01
2560.00,86.01
2557.50,86.00
2555.00,86.00
2552.50,85.99
2550.00,85.97
2547.50,85.95
2545.00,85.91
2542.50,85.88
2540.00,85.83
2537.50,85.77
2535.00,85.69
2532.50,85.57
2530.00,85.43
2527.50,85.26
2525.00,85.05
2522.50,84.80
2520.00,84.51
2517.50,84.17
2515.00,83.71
2512.50,83.05
2510.00,82.08
2507.50,80.61
2505.00,78.53
2502.50,76.26
2500.00,74.93
2497.50,75.32
2495.00,76.81
2492.50,78.51
2490.00,80.10
2487.50,81.49
2485.00,82.61
2482.50,83.45
2480.00,84.05
2477.50,84.50
2475.00,84.84
2472.50,85.09
2470.00,85.30
2467.50,85.45
2465.00,85.58
2462.50,85.69
2460.00,85.79
2457.50,85.87
2455.00,85.94
2452.50,86.00
2450.00,86.05
2447.50,86.09
2445.00,86.13
2442.50,86.15
2440.00,86.17
2437.50,86.19
2435.00,86.20
2432.50,86.21
2430.00,86.22
2427.50,86.23
2425.00,86.23
2422.50,86.23
2420.00,86.23
2417.50,86.21
2415.00,86.20
2412.50,86.18
2410.00,86.16
2407.50,86.14
2405.00,86.13
2402.50,86.12
2400.00,86.11
2397.50,86.10
2395.00,86.09
2392.50,86.07
2390.00,86.04
2387.50,86.01
2385.00,85.98
2382.50,85.94
2380.00,85.88
2377.50,85.81
2375.00,85.76
2372.50,85.76
2370.00,85.74
2367.50,85.70
2365.00,85.65
2362.50,85.61
2360.00,85.58
2357.50,85.54
2355.00,85.43
2352.50,85.36
2350.00,85.33
2347.50,85.26
2345.00,85.23
2342.50,85.19
2340.00,85.02
2337.50,84.95
2335.00,84.95
2332.50,84.93
2330.00,84.89
2327.50,84.84
2325.00,84.74
2322.50,84.66
2320.00,84.57
2317.50,84.48
2315.00,84.36
2312.50,84.25
2310.00,84.15
2307.50,84.02
2305.00,83.89
2302.50,83.76
2300.00,83.61
2297.50,83.44
2295.00,83.25
2292.50,83.04
2290.00,82.82
2287.50,82.58
2285.00,82.33
2282.50,82.08
2280.00,81.84
2277.50,81.62
2275.00,81.43
2272.50,81.29
2270.00,81.20
2267.50,81.11
2265.00,81.02
2262.50,80.91
2260.00,80.79
2257.50,80.64
2255.00,80.47
2252.50,80.28
2250.00,80.06
2247.50,79.80
2245.00,79.52
2242.50,79.21
2240.00,78.86
2237.50,78.47
2235.00,78.01
2232.50,77.49
2230.00,76.90
2227.50,76.23
2225.00,75.51
2222.50,74.72
2220.00,73.88
2217.50,72.95
2215.00,71.92
2212.50,70.76
2210.00,69.44
2207.50,67.91
2205.00,66.15
2202.50,64.16
2200.00,61.87
2197.50,59.28
2195.00,56.34
2192.50,53.05
2190.00,49.43
2187.50,45.49
2185.00,41.30
2182.50,36.98
2180.00,32.71
2177.50,28.69
2175.00,25.10
2172.50,22.10
2170.00,19.76
2167.50,18.07
2165.00,17.01
2162.50,16.64
2160.00,16.92
2157.50,17.86
2155.00,19.44
2152.50,21.71
2150.00,24.64
2147.50,28.17
2145.00,32.16
2142.50,36.45
2140.00,40.85
2137.50,45.17
2135.00,49.26
2132.50,52.96
2130.00,56.22
2127.50,58.99
2125.00,61.29
2122.50,63.21
2120.00,64.81
2117.50,66.13
2115.00,67.21
2112.50,68.08
2110.00,68.81
2107.50,69.42
2105.00,69.97
2102.50,70.47
2100.00,70.90
2097.50,71.27
2095.00,71.57
2092.50,71.77
2090.00,71.88
2087.50,71.89
2085.00,71.85
2082.50,71.78
2080.00,71.68
2077.50,71.55
2075.00,71.35
2072.50,71.08
2070.00,70.74
2067.50,70.30
2065.00,69.86
2062.50,69.38
2060.00,68.86
2057.50,68.34
2055.00,67.91
2052.50,67.66
2050.00,67.81
2047.50,68.48
2045.00,69.68
2042.50,71.18
2040.00,72.72
2037.50,73.95
2035.00,74.80
2032.50,75.28
2030.00,75.43
2027.50,75.29
2025.00,74.96
2022.50,74.47
2020.00,73.86
2017.50,73.14
2015.00,72.34
2012.50,71.45
2010.00,70.61
2007.50,69.95
2005.00,69.46
2002.50,68.98
2000.00,68.54
1997.50,68.27
1995.00,68.27
1992.50,68.42
1990.00,68.33
1987.50,67.92
1985.00,67.28
1982.50,66.40
1980.00,65.29
1977.50,63.96
1975.00,62.41
1972.50,60.69
1970.00,58.89
1967.50,57.15
1965.00,55.61
1962.50,54.30
1960.00,53.10
1957.50,51.92
1955.00,50.62
1952.50,49.19
1950.00,47.71
1947.50,46.41
1945.00,45.64
1942.50,45.82
1940.00,47.12
1937.50,49.25
1935.00,51.61
1932.50,53.68
1930.00,55.22
1927.50,56.31
1925.00,57.08
1922.50,57.72
1920.00,58.25
1917.50,59.02
1915.00,59.91
1912.50,61.08
1910.00,62.18
1907.50,63.14
1905.00,63.89
1902.50,64.47
1900.00,64.86
1897.50,65.04
1895.00,65.11
1892.50,65.10
1890.00,65.02
1887.50,64.97
1885.00,64.88
1882.50,64.79
1880.00,64.68
1877.50,64.59
1875.00,64.47
1872.50,64.38
1870.00,64.31
1867.50,64.33
1865.00,64.31
1862.50,64.30
1860.00,64.27
1857.50,64.15
1855.00,63.99
1852.50,63.90
1850.00,63.93
1847.50,64.04
1845.00,64.22
1842.50,64.34
1840.00,64.36
1837.50,64.30
1835.00,64.19
1832.50,63.99
1830.00,63.80
1827.50,63.47
1825.00,63.05
1822.50,62.66
1820.00,62.19
1817.50,61.65
1815.00,61.10
1812.50,60.50
1810.00,59.85
1807.50,59.17
1805.00,58.49
1802.50,57.73
1800.00,57.08
1797.50,56.41
1795.00,55.74
1792.50,55.19
1790.00,54.56
1787.50,54.09
1785.00,53.68
1782.50,53.35
1780.00,53.12
1777.50,52.98
1775.00,52.91
1772.50,53.05
1770.00,52.99
1767.50,53.07
1765.00,53.18
1762.50,53.30
1760.00,53.44
1757.50,53.52
1755.00,53.65
1752.50,53.66
1750.00,53.73
1747.50,53.75
1745.00,53.63
1742.50,53.51
1740.00,53.40
1737.50,53.05
1735.00,52.83
1732.50,52.35
1730.00,51.94
1727.50,51.62
1725.00,51.30
1722.50,51.05
1720.00,50.84
1717.50,50.74
1715.00,50.62
1712.50,50.48
1710.00,50.39
1707.50,50.29
1705.00,50.14
1702.50,49.97
1700.00,49.83
1697.50,49.54
1695.00,49.19
1692.50,48.87
1690.00,48.45
1687.50,48.01
1685.00,47.56
1682.50,47.19
1680.00,46.88
1677.50,46.63
1675.00,46.23
1672.50,45.75
1670.00,45.28
1667.50,44.52
1665.00,43.96
1662.50,43.34
1660.00,42.73
1657.50,42.15
1655.00,41.68
1652.50,40.81
1650.00,40.60
1647.50,40.18
1645.00,39.65
1642.50,39.28
1640.00,38.90
1637.50,38.54
1635.00,38.00
1632.50,37.65
1630.00,37.21
1627.50,36.72
1625.00,36.30
1622.50,35.79
1620.00,35.37
1617.50,35.01
1615.00,34.61
1612.50,34.38
1610.00,34.22
1607.50,34.04
1605.00,33.76
1602.50,33.07
1600.00,31.12
1597.50,28.30
1595.00,30.31
1592.50,33.68
1590.00,35.33
1587.50,36.36
1585.00,37.23
1582.50,38.02
1580.00,38.75
1577.50,39.31
1575.00,40.15
1572.50,40.60
1570.00,41.17
1567.50,41.65
1565.00,42.01
1562.50,42.28
1560.00,42.51
1557.50,42.83
1555.00,42.82
1552.50,42.91
1550.00,42.85
1547.50,42.88
1545.00,42.80
1542.50,42.81
1540.00,42.77
1537.50,42.46
1535.00,42.31
1532.50,42.16
1530.00,42.07
1527.50,41.99
1525.00,42.06
1522.50,42.10
1520.00,42.10
1517.50,42.02
1515.00,42.09
1512.50,42.10
1510.00,42.01
1507.50,41.99
1505.00,42.05
1502.50,41.95
1500.00,41.83
1497.50,41.52
1495.00,40.86
1492.50,40.01
1490.00,38.68
1487.50,37.47
1485.00,36.35
1482.50,35.65
1480.00,35.27
1477.50,35.03
1475.00,34.69
1472.50,33.95
1470.00,32.47
1467.50,30.40
1465.00,27.93
1462.50,25.07
1460.00,22.28
1457.50,19.49
1455.00,16.91
1452.50,14.67
1450.00,12.26
1447.50,10.44
1445.00,10.07
1442.50,10.94
1440.00,12.66
1437.50,14.21
1435.00,15.57
1432.50,15.61
1430.00,14.49
1427.50,12.28
1425.00,9.40
1422.50,5.87
1420.00,3.60
1417.50,1.75
1415.00,1.12
1412.50,0.92
1410.00,0.95
1407.50,1.16
1405.00,1.55
1402.50,1.95
1400.00,2.43
1397.50,3.70
1395.00,6.06
1392.50,9.31
1390.00,12.60
1387.50,15.38
1385.00,17.49
1382.50,19.32
1380.00,20.99
1377.50,22.20
1375.00,22.79
1372.50,23.16
1370.00,24.04
1367.50,25.20
1365.00,25.87
1362.50,26.37
1360.00,26.76
1357.50,27.06
1355.00,27.25
1352.50,27.30
1350.00,27.21
1347.50,27.03
1345.00,26.85
1342.50,26.79
1340.00,26.74
1337.50,26.63
1335.00,26.32
1332.50,25.74
1330.00,24.95
1327.50,23.98
1325.00,22.85
1322.50,21.61
1320.00,20.28
1317.50,18.87
1315.00,17.43
1312.50,15.93
1310.00,14.50
1307.50,13.07
1305.00,11.67
1302.50,10.30
1300.00,8.89
1297.50,7.49
1295.00,6.08
1292.50,4.76
1290.00,3.57
1287.50,2.52
1285.00,1.61
1282.50,0.89
1280.00,0.39
1277.50,0.11
1275.00,0.02
1272.50,0.00
1270.00,0.01
1267.50,0.01
1265.00,0.00
1262.50,0.01
1260.00,0.00
1257.50,0.00
1255.00,0.00
1252.50,0.00
1250.00,0.00
1247.50,0.01
1245.00,0.02
1242.50,0.07
1240.00,0.20
1237.50,0.38
1235.00,0.54
1232.50,0.64
1230.00,0.65
1227.50,0.59
1225.00,0.47
1222.50,0.33
1220.00,0.23
1217.50,0.14
1215.00,0.08
1212.50,0.05
1210.00,0.02
1207.50,0.02
1205.00,0.01
1202.50,0.00
1200.00,0.01
1197.50,0.00
1195.00,0.00
1192.50,0.01
1190.00,0.01
1187.50,0.01
1185.00,0.01
1182.50,0.00
1180.00,0.01
1177.50,0.01
1175.00,0.01
1172.50,0.01
1170.00,0.01
1167.50,0.00
1165.00,0.00
1162.50,0.01
1160.00,0.00
1157.50,0.00
1155.00,0.01
1152.50,0.01
1150.00,0.00
1147.50,0.01
1145.00,0.01
1142.50,0.00
1140.00,0.00
1137.50,0.00
1135.00,0.01
1132.50,0.01
1130.00,0.01
1127.50,0.00
1125.00,0.01
1122.50,0.01
1120.00,0.00
1117.50,0.00
1115.00,0.01
1112.50,0.00
1110.00,0.01
1107.50,0.01
1105.00,0.01
1102.50,0.00
1100.00,0.00
1097.50,0.00
1095.00,0.00
1092.50,0.00
1090.00,0.01
1087.50,0.00
1085.00,0.00
1082.50,0.01
1080.00,0.01
1077.50,0.01
1075.00,0.00
1072.50,0.01
1070.00,0.01
1067.50,0.01
1065.00,0.01
1062.50,0.00
1060.00,0.00
1057.50,0.00
1055.00,0.00
1052.50,0.01
1050.00,0.00
1047.50,0.00
1045.00,0.00
1042.50,0.00
1040.00,0.01
1037.50,0.01
1035.00,0.01
1032.50,0.01
1030.00,0.01
1027.50,0.00
1025.00,0.00
1022.50,0.01
1020.00,0.01
1017.50,0.00
1015.00,0.01
1012.50,0.01
1010.00,0.00
1007.50,0.00
1005.00,0.00
1002.50,0.01
1000.00,0.00
997.50,0.00
995.00,0.00
992.50,0.00
990.00,0.02
987.50,0.04
985.00,0.08
982.50,0.17
980.00,0.32
977.50,0.54
975.00,0.81
972.50,1.11
970.00,1.45
967.50,1.78
965.00,2.04
962.50,2.23
960.00,2.38
957.50,2.54
955.00,2.87
952.50,3.53
950.00,4.39
947.50,5.08
945.00,5.52
942.50,5.75
940.00,5.79
937.50,5.61
935.00,5.19
932.50,4.52
930.00,3.70
927.50,2.94
925.00,2.34
922.50,1.72
920.00,1.07
917.50,0.58
915.00,0.36
912.50,0.28
910.00,0.31
907.50,0.38
905.00,0.43
902.50,0.40
900.00,0.29
897.50,0.17
895.00,0.09
892.50,0.05
890.00,0.03
887.50,0.02
885.00,0.00
882.50,0.01
880.00,0.00
877.50,0.00
875.00,0.00
872.50,0.01
870.00,0.01
867.50,0.01
865.00,0.01
862.50,0.01
860.00,0.01
857.50,0.00
855.00,0.01
852.50,0.00
850.00,0.00
847.50,0.00
845.00,0.01
842.50,0.01
840.00,0.01
837.50,0.00
835.00,0.01
832.50,0.01
830.00,0.00
827.50,0.00
825.00,0.02
822.50,0.01
820.00,0.01
817.50,0.01
815.00,0.01
812.50,0.01
810.00,0.02
807.50,0.01
805.00,0.01
802.50,0.01
800.00,0.01
797.50,0.01
795.00,0.00
792.50,0.02
790.00,0.00
787.50,0.00
785.00,0.00
782.50,0.01
780.00,0.01
777.50,0.01
775.00,0.01
772.50,0.01
770.00,0.02
767.50,0.01
765.00,0.01
762.50,0.02
760.00,0.01
757.50,0.01
755.00,0.01
752.50,0.01
750.00,0.12
747.50,0.41
745.00,0.77
742.50,1.14
740.00,1.50
737.50,1.84
735.00,2.17
732.50,2.39
730.00,2.51
727.50,2.55
725.00,2.51
722.50,2.40
720.00,2.18
717.50,1.81
715.00,1.30
712.50,0.74
710.00,0.33
707.50,0.16
705.00,0.11
702.50,0.12
700.00,0.11
697.50,0.12
695.00,0.13
692.50,0.12
690.00,0.11
687.50,0.15
685.00,0.21
682.50,0.31
680.00,0.52
677.50,0.76
675.00,0.95
672.50,1.10
670.00,1.15
667.50,1.15
665.00,1.04
662.50,0.84
660.00,0.90
657.50,3.05
655.00,6.88
652.50,9.32
650.00,10.41
647.50,10.72
645.00,10.61
642.50,10.17
640.00,9.55
637.50,8.87
635.00,8.31
632.50,7.92
630.00,7.65
627.50,7.52
625.00,7.51
622.50,7.55
620.00,7.69
617.50,7.78
615.00,7.72
612.50,7.64
610.00,7.31
607.50,6.24
605.00,4.42
602.50,2.84
600.00,2.42
597.50,2.84
595.00,3.41
592.50,3.72
590.00,3.60
587.50,3.18
585.00,2.54
582.50,1.96
580.00,1.50
577.50,1.20
575.00,1.00
572.50,0.86
570.00,0.79
567.50,0.70
565.00,0.66
562.50,0.63
560.00,0.57
557.50,0.52
555.00,0.51
552.50,0.46
550.00,0.45
547.50,0.39
545.00,0.38
542.50,0.33
540.00,0.31
537.50,0.33
535.00,0.23
532.50,0.26
530.00,0.19
527.50,0.23
525.00,0.16
522.50,0.16
520.00,0.14
517.50,0.16
515.00,0.14
512.50,0.14
510.00,0.14
507.50,0.10
505.00,0.12
502.50,0.08
500.00,0.13
497.50,0.06
495.00,0.04
492.50,0.11
490.00,0.08
487.50,0.07
485.00,0.03
482.50,0.08
480.00,0.05
477.50,0.02
475.00,0.03
472.50,0.03
470.00,0.07
467.50,0.10
465.00,0.06
462.50,0.07
460.00,0.11
457.50,0.09
455.00,0.06
452.50,0.07
450.00,0.10
447.50,0.15
445.00,0.07
442.50,0.11
440.00,0.14
437.50,0.03
435.00,0.03
432.50,0.05
430.00,0.08
427.50,0.03
425.00,0.11
422.50,0.17
420.00,0.31
417.50,0.17
415.00,0.05
412.50,0.17
410.00,0.05
407.50,0.16
405.00,0.21
402.50,0.28
400.00,0.17